time,timestamp,recordtime,lat,long,alt,speed,course,verticalAccuracy,horizontalAccuracy,locTimeStamp,accelerationX,accelerationY,accelerationZ,HeadingX,HeadingY,HeadingZ,TrueHeading,MagneticHeading,HeadingAccuracy,RotationX,RotationY,RotationZ,motionYaw,motionRoll,motionPitch,motionRotationRateX,motionRotationRateY,motionRotationRateZ,motionUserAccelerationX,motionUserAccelerationY,motionUserAccelerationZ,en0,pdp_ip0,DeviceOrientation,State
2014-11-28 12:58:09.909,1,0.03333334,56.17318,10.18905,57.42627,0.84,245.0391,8,5,1417175889,0.01248169,-0.4608002,-0.4434204,17.86539,-29.23401,-31.22397,264.0344,261.7561,20,-0.7928603,-0.7349707,-0.6214497,-1.098737,0.305356,0.7496684,-0.01509487,-1.162188,-0.6763487,-0.168707,0.1816555,-0.02566784,0.0.0.0,10.205.173.28,1,0
2014-11-28 12:58:09.943,2,0.06666667,56.17318,10.18905,57.42627,0.84,245.0391,8,5,1417175889,0.06513977,-0.450943,-0.5764465,16.88661,-28.89545,-32.05026,263.2568,260.9785,20,-1.484848,-0.8001878,-0.2803326,-1.11351,0.2961126,0.7360243,-0.8278561,-0.7284133,-0.6112455,-0.2037871,0.2105465,0.2654671,0.0.0.0,10.205.173.28,1,0
2014-11-28 12:58:09.976,3,0.1,56.17318,10.18905,57.42627,0.84,245.0391,8,5,1417175889,-0.05989075,-0.4802704,-0.6847229,16.19472,-28.37067,-33.2236,264.2487,261.9705,20,0.1409941,-0.1992154,0.2794636,-1.099379,0.2361773,0.6736538,-0.09026305,-0.545329,0.2565476,-0.1845052,0.1443688,-0.03230867,0.0.0.0,10.205.173.28,1,0
2014-11-28 12:58:10.013,4,0.1333333,56.17318,10.18905,57.42627,0.84,245.0391,8,5,1417175889,-0.07537842,-0.4467316,-0.4591675,14.40593,-27.55814,-35.23978,262.4995,260.2212,20,0.06437074,0.2362272,0.1818071,-1.090798,0.230458,0.6795173,0.1403472,0.2538584,0.1846866,-0.2857937,0.1687466,0.2399766,0.0.0.0,10.205.173.28,1,0
2014-11-28 12:58:10.043,5,0.1666667,56.17318,10.18905,57.42627,0.84,245.0391,8,5,1417175889,-0.04084778,-0.5064392,-0.5703888,14.01781,-27.06723,-35.78513,262.365,260.0867,20,-0.04730147,0.08194573,0.29498,-1.081469,0.2315991,0.6796973,-0.1312753,0.1695855,0.2887056,-0.2270157,0.1836114,0.2363063,0.0.0.0,10.205.173.28,1,0
2014-11-28 12:58:10.076,6,0.2,56.17318,10.18905,57.42627,0.84,245.0391,8,5,1417175889,-0.08132935,-0.5580292,-0.5367737,13.83217,-26.81331,-36.29744,263.6494,261.3712,20,0.1181935,-0.210206,0.08626086,-1.070543,0.2240909,0.6809012,0.06695524,-0.1771679,0.2000692,-0.2256143,0.09218578,0.1899204,0.0.0.0,10.205.173.28,1,0
2014-11-28 12:58:10.110,7,0.2333333,56.17318,10.18905,57.42627,0.84,245.0391,8,5,1417175889,-0.07046509,-0.5861359,-0.6761169,13.44405,-26.93179,-36.61143,263.7393,261.461,20,-0.1802001,-0.1718426,-0.3776128,-1.071043,0.2195986,0.6810219,-0.1230284,-0.08174585,-0.194443,-0.2731418,0.04549614,0.2176681,0.0.0.0,10.205.173.28,1,0
2014-11-28 12:58:10.143,8,0.2666667,56.17318,10.18905,57.42627,0.84,245.0391,8,5,1417175889,0.05632019,-0.5576019,-0.9650421,14.01781,-26.55934,-37.20638,266.2581,263.9799,20,0.04509318,-1.17936,-0.5675985,-1.087216,0.2174824,0.671861,-0.1432364,-0.7772831,-0.5592933,-0.1439748,0.05513708,-0.1098107,0.0.0.0,10.205.173.28,1,0
2014-11-28 12:58:10.176,9,0.3,56.17318,10.18905,57.42627,0.84,245.0391,8,5,1417175889,-0.07575989,-0.5267639,-0.7606964,13.96719,-26.37312,-37.55342,266.9966,264.7183,20,0.8649846,-0.2431911,-0.728778,-1.110358,0.1940255,0.6739797,0.5522233,-1.01729,-0.5938739,-0.160661,0.095124,-0.1278482,0.0.0.0,10.205.173.28,1,0
2014-11-28 12:58:10.209,10,0.3333333,56.17318,10.189,57.02167,1.47,259.1016,8,5,1417175890,-0.1196136,-0.9132843,-0.8430023,14.54097,-26.50856,-37.61952,268.1936,265.9153,20,1.112362,2.714311,-1.02694,-1.153252,0.2457177,0.699299,1.257518,2.376392,-1.033392,-0.3829827,0.01706398,0.1209075,0.0.0.0,10.205.173.28,1,0
2014-11-28 12:58:10.243,11,0.3666667,56.17318,10.189,57.02167,1.47,259.1016,8,5,1417175890,-0.1196136,-0.9132843,-0.8430023,15.78975,-26.23772,-37.32207,269.9273,267.649,20,0.3135308,2.041117,-0.8209535,-1.153252,0.2457177,0.699299,1.257518,2.376392,-1.033392,-0.3829827,0.01706398,0.1209075,0.0.0.0,10.205.173.28,1,0
2014-11-28 12:58:10.276,12,0.4,56.17318,10.189,57.02167,1.47,259.1016,8,5,1417175890,0.2163391,-0.5931702,-1.138199,18.69232,-25.56061,-35.40503,274.9094,272.6311,20,-0.5777541,2.18816,0.1672684,-1.200394,0.4010823,0.6810267,-0.5623549,1.028466,-0.337874,-0.254099,0.09927181,-0.2081013,0.0.0.0,10.205.173.28,1,0
2014-11-28 12:58:10.310,13,0.4333334,56.17318,10.189,57.02167,1.47,259.1016,8,5,1417175890,0.240509,-0.5296478,-0.7794189,21.00424,-25.40825,-34.39694,272.8719,270.5936,20,-0.7460699,2.855271,0.5135416,-1.186265,0.4563468,0.6646717,-0.3513298,2.687715,0.5481125,-0.07278281,0.0531869,-0.3699507,0.0.0.0,10.205.173.28,1,0
2014-11-28 12:58:10.342,14,0.4666667,56.17318,10.189,57.02167,1.47,259.1016,8,5,1417175890,0.01937866,-0.3930054,-0.94664,24.98683,-23.98628,-31.65363,269.6091,267.3308,20,-0.786526,1.056198,-0.5690403,-1.156762,0.523605,0.6533247,-0.9019957,1.768796,0.1125263,-0.4497113,0.1312978,-0.2111237,0.0.0.0,10.205.173.28,1,0
2014-11-28 12:58:10.376,15,0.5,56.17318,10.189,57.02167,1.47,259.1016,8,5,1417175890,0.4345398,-0.336853,-1.179382,26.74187,-23.20758,-30.69513,269.4701,267.1918,20,-1.059474,2.839099,0.01211312,-1.153108,0.5594994,0.6225668,-1.181876,1.770819,-0.4391609,-0.1165771,0.2819596,-0.2039586,0.0.0.0,10.205.173.28,1,0
2014-11-28 12:58:10.410,16,0.5333334,56.17318,10.189,57.02167,1.47,259.1016,8,5,1417175890,0.4162445,-0.3869629,-0.8325348,28.73315,-22.69975,-29.34,266.4367,264.1584,20,-1.518446,4.327403,-0.09942006,-1.129519,0.6316402,0.590684,-0.9793027,2.970089,0.01981357,-0.04718282,0.1496264,-0.3445045,0.0.0.0,10.205.173.28,1,0
2014-11-28 12:58:10.443,17,0.5666667,56.17318,10.189,57.02167,1.47,259.1016,8,5,1417175890,0.3895111,-0.1419373,-0.8665924,30.60631,-21.93799,-27.4395,264.0742,261.7959,20,-1.426959,7.836891,-0.7109151,-1.095537,0.7488044,0.5530941,-1.88536,6.041776,-0.2191948,-0.1455327,0.2155538,0.03243857,0.0.0.0,10.205.173.28,1,0
2014-11-28 12:58:10.476,18,0.6,56.17318,10.189,57.02167,1.47,259.1016,8,5,1417175890,0.2976532,-0.1150818,0.1877594,35.21327,-20.16052,-20.77955,253.8273,251.549,20,0.1110674,3.628487,-1.524237,-1.068521,0.9784259,0.5050918,-0.6606767,7.947701,-1.026023,-0.1800655,0.298524,-0.04047265,0.0.0.0,10.205.173.28,1,0
2014-11-28 12:58:10.510,19,0.6333334,56.17318,10.189,57.02167,1.47,259.1016,8,5,1417175890,0.3518219,0.103302,-0.3891754,37.64333,-18.70471,-16.58195,254.6021,252.3238,20,-3.370655,2.348854,-1.261513,-1.071317,1.143434,0.4554892,-2.059226,1.819576,-1.772586,-0.3508164,0.5610565,1.680046,0.0.0.0,10.205.173.28,1,0
2014-11-28 12:58:10.543,20,0.6666667,56.17318,10.189,57.02167,1.47,259.1016,8,5,1417175890,-0.1873932,0.01112366,0.03186035,39.7865,-16.92726,-12.63225,252.9612,250.683,20,-2.947103,3.310747,-1.593461,-0.9848981,1.183121,0.3739712,-2.757332,2.737071,-1.128352,-0.5099813,0.4686171,-0.0372662,0.0.0.0,10.205.173.28,1,0
2014-11-28 12:58:10.576,21,0.7,56.17318,10.189,57.02167,1.47,259.1016,8,5,1417175890,-0.06243896,-0.0539093,-0.1260834,41.45715,-14.77737,-8.649483,252.2954,250.0171,20,-3.531875,2.221769,-2.82441,-0.9099563,1.259934,0.2948959,-3.170563,3.258135,-2.280771,-1.296637,0.2578949,0.3621645,0.0.0.0,10.205.173.28,1,0
2014-11-28 12:58:10.610,22,0.7333333,56.17318,10.189,57.02167,1.47,259.1016,8,5,1417175890,0.168869,0.1220245,-0.7475891,42.99281,-9.275696,-4.170937,247.3701,245.0918,20,-3.530166,-0.007543404,-2.583722,-0.8243175,1.313543,0.1807814,-3.719466,1.379016,-2.634945,-0.9424364,0.1593973,-0.06772952,0.0.0.0,10.205.173.28,1,0
2014-11-28 12:58:10.643,23,0.7666667,56.17318,10.189,57.02167,1.47,259.1016,8,5,1417175890,0.6016693,0.1589203,-0.8447266,43.14468,-6.584122,-3.228958,250.0916,247.8133,20,-2.985713,-1.20989,-2.767563,-0.7342194,1.309235,0.07194244,-3.215068,-0.2158846,-2.762404,-0.7946196,0.1939049,-0.4896688,0.0.0.0,10.205.173.28,1,0
2014-11-28 12:58:10.676,24,0.8000001,56.17318,10.189,57.02167,1.47,259.1016,8,5,1417175890,1.96431,0.4593811,-1.383469,42.85782,-3.35083,-2.683594,249.8324,247.5541,20,-2.6361,-1.300464,-0.9938704,-0.6173289,1.239113,-0.09706266,-2.750482,-1.744599,-1.654452,1.023265,0.3624708,-1.059366,0.0.0.0,10.205.173.28,1,0
2014-11-28 12:58:10.710,25,0.8333334,56.17318,10.189,57.02167,1.47,259.1016,8,5,1417175890,2.237137,0.4884491,-0.2648163,41.99718,1.541443,-3.62558,250.7508,248.4725,20,-4.203229,-0.07640476,2.102055,-0.5277494,1.219856,-0.1302513,-3.524527,-0.4528155,1.36325,1.521877,0.2064204,-0.09130596,0.0.0.0,10.205.173.28,1,0
2014-11-28 12:58:10.742,26,0.8666667,56.17318,10.189,57.02167,1.47,259.1016,8,5,1417175890,0.9664764,1.191849,-1.199554,41.62592,2.320114,-4.551033,247.9811,245.7029,20,-6.403109,-0.8799257,1.785922,-0.3510899,1.233864,-0.1096017,-6.174343,-0.7243016,2.653392,0.4223326,0.7575914,-0.2365608,0.0.0.0,10.205.173.28,1,0
2014-11-28 12:58:10.777,27,0.9,56.17318,10.189,57.02167,1.47,259.1016,8,5,1417175890,1.244141,1.092163,-1.656128,41.27151,2.404755,-5.12944,245.3761,243.0978,20,-3.964311,2.126847,-0.7438712,-0.1580773,1.24685,-0.1378216,-5.169287,0.7139771,-0.01988719,0.05755405,1.011372,-1.171174,0.0.0.0,10.205.173.28,1,0
2014-11-28 12:58:10.810,28,0.9333334,56.17318,10.189,57.02167,1.47,259.1016,8,5,1417175890,1.258026,0.4766998,-0.7055359,41.2209,1.913818,-5.212067,237.1354,234.8571,20,0.5662224,4.65837,-0.1555712,-0.07235347,1.344719,-0.1838324,-1.191899,3.577071,-0.4425365,0.6199774,0.4337784,-0.8767734,0.0.0.0,10.205.173.28,1,0
2014-11-28 12:58:10.844,29,0.9666667,56.17318,10.189,57.02167,1.47,259.1016,8,5,1417175890,0.2325134,0.8380432,-0.2185974,41.03525,1.050507,-2.716637,225.0536,222.7753,20,0.0271709,1.362737,-0.6474709,-0.1000872,1.48152,-0.1831158,1.07278,3.726316,-0.1405722,-0.5176952,0.4988598,-0.155756,0.0.0.0,10.205.173.28,1,0
2014-11-28 12:58:10.876,30,1,56.17318,10.189,57.02167,1.47,259.1016,8,5,1417175890,1.055954,0.4954224,-0.4875641,40.91713,1.609131,-0.8161545,222.6242,220.3459,20,-0.8505367,-1.206674,-1.527296,-0.08345711,1.50444,-0.2218811,-1.254997,-0.7229667,-1.781817,-0.3429978,0.5069095,-0.272018,0.0.0.0,10.205.173.28,1,0
2014-11-28 12:58:10.910,31,1.033333,56.17318,10.189,57.02167,1.47,259.1016,8,5,1417175890,0.7935333,0.5009003,-0.6976013,40.64711,2.692535,0.7703476,225.2293,222.951,20,1.313223,-1.855792,-1.101387,-0.07355426,1.461414,-0.2650145,0.3761357,-1.841031,-1.09083,0.03234768,0.05144646,-0.7385644,0.0.0.0,10.205.173.28,1,0
2014-11-28 12:58:10.942,32,1.066667,56.17318,10.189,57.02167,1.47,259.1016,8,5,1417175890,0.6329651,0.8456116,0.7660675,40.37709,3.742081,1.530548,227.7878,225.5096,20,2.750923,-0.3370436,-1.992153,-0.1438823,1.39194,-0.2946179,2.790579,-0.7870196,-1.563071,-0.4861734,0.5421606,0.5056579,0.0.0.0,10.205.173.28,1,0
2014-11-28 12:58:10.976,33,1.1,56.17318,10.189,57.02167,1.47,259.1016,8,5,1417175890,0.8373871,0.7488403,0.1982117,39.75272,7.178513,0.1258316,236.7423,234.464,20,-0.1672463,-1.59879,-1.848889,-0.2208964,1.351229,-0.3468848,0.6471333,-1.022801,-2.127993,-0.2321891,0.5131643,0.8049166,0.0.0.0,10.205.173.28,1,0
2014-11-28 12:58:11.009,34,1.133333,56.17318,10.189,57.02167,1.47,259.1016,8,5,1417175890,1.163086,0.4085083,-0.5267487,38.97644,8.803635,-1.328453,241.2983,239.02,20,-0.6803655,-0.3145968,-1.757861,-0.2225216,1.30348,-0.4104067,-0.8337318,-1.084648,-2.033556,-0.04700415,0.349858,0.4404208,0.0.0.0,10.205.173.28,1,0
2014-11-28 12:58:11.044,35,1.166667,56.17318,10.189,57.02167,1.47,259.1016,8,5,1417175890,0.8206024,0.3226776,0.1368866,37.52516,13.06955,-2.187798,246.2427,243.9644,20,-0.5795531,1.339807,-1.867127,-0.2336821,1.33702,-0.4908563,-0.3245364,2.878482,-2.536531,-0.1708669,0.2536249,1.050371,0.0.0.0,10.205.173.28,1,0
2014-11-28 12:58:11.076,36,1.2,56.17318,10.189,57.02167,1.47,259.1016,8,5,1417175890,0.7793427,0.4792175,0.2370453,36.31015,15.10092,-1.857277,248.7147,246.4364,20,-0.006107427,1.112819,-1.813946,-0.2249642,1.398881,-0.5562097,-0.327226,1.40555,-1.852843,-0.3787813,-0.2497118,0.1072885,0.0.0.0,10.205.173.28,1,0
2014-11-28 12:58:11.113,37,1.233333,56.17318,10.189,57.02167,1.47,259.1016,8,5,1417175890,1.565048,0.4959259,0.2118378,35.29764,16.92917,-0.865715,250.9269,248.6486,20,-0.8543421,2.954238,-1.003692,-0.2306064,1.432304,-0.613407,-0.3097411,1.039723,-1.652315,0.2440164,-0.1719701,0.4213233,0.0.0.0,10.205.173.28,1,0
2014-11-28 12:58:11.143,38,1.266667,56.17318,10.189,57.02167,1.47,259.1016,8,5,1417175890,1.467346,0.5648499,0.01022339,34.4201,18.52042,0.8860474,255.2287,252.9504,20,0.1956188,3.9837,-0.06023112,-0.2019898,1.532321,-0.6509654,-1.153604,3.384645,-0.5743879,0.6657829,-0.07726815,0.2072963,0.0.0.0,10.205.173.28,1,0
2014-11-28 12:58:11.176,39,1.3,56.17318,10.189,57.02167,1.47,259.1016,8,5,1417175890,1.153351,1.061539,-0.1560974,32.37822,20.29788,4.769653,261.2865,259.0082,20,0.7622311,3.404389,-0.5046403,-0.214241,1.648898,-0.6546769,3.342781,4.072686,0.4837692,0.5529997,-0.9533549,-3.06154,0.0.0.0,10.205.173.28,1,0
2014-11-28 12:58:11.209,40,1.333333,56.17318,10.18896,56.75232,1.3,279.1406,6,5,1417175891,0.7097931,0.7605133,-0.09776306,31.56821,20.80573,7.149391,265.6187,263.3404,20,-0.7557662,-0.2600572,1.391834,-0.265929,1.72496,-0.6612961,0.3741458,2.210676,0.2953816,0.8327268,-0.05986469,-0.7414538,0.0.0.0,10.205.173.28,1,0
2014-11-28 12:58:11.243,41,1.366667,56.17318,10.18896,56.75232,1.3,279.1406,6,5,1417175891,0.8258514,0.6666412,-0.3186188,31.19695,20.46715,9.198616,269.8609,267.5826,20,-0.7010263,-0.748153,1.333991,-0.2445053,1.744482,-0.619431,-1.684861,-0.37538,1.062817,-0.0918147,0.3263647,0.3298286,0.0.0.0,10.205.173.28,1,0
2014-11-28 12:58:11.276,42,1.4,56.17318,10.18896,56.75232,1.3,279.1406,6,5,1417175891,0.5401611,0.4644318,-0.05685425,30.85944,19.92545,10.81815,271.4233,269.1451,20,-0.4472513,1.156723,0.5684459,-0.1965215,1.75739,-0.5745185,-0.8802606,0.2951211,1.139042,-0.149544,-0.09616503,0.004244105,0.0.0.0,10.205.173.28,1,0
2014-11-28 12:58:11.310,43,1.433333,56.17318,10.18896,56.75232,1.3,279.1406,6,5,1417175891,-0.1791229,0.5985565,-0.2651062,30.92696,18.46962,13.69368,269.0136,266.7353,20,-0.8731248,1.864069,0.2350306,-0.1836749,1.80948,-0.5563919,0.07269501,3.455268,-0.4275083,-0.09903328,0.07320784,-0.1872594,0.0.0.0,10.205.173.28,1,0
2014-11-28 12:58:11.343,44,1.466667,56.17318,10.18896,56.75232,1.3,279.1406,6,5,1417175891,0.08956909,0.5480804,0.2749176,31.38258,17.57242,14.73481,268.5424,266.2641,20,-1.027164,-1.16223,-0.7794721,-0.1542384,1.911248,-0.5532783,-1.180758,-1.351576,0.3684289,-0.9810965,0.07307725,-0.5492011,0.0.0.0,10.205.173.28,1,0
2014-11-28 12:58:11.376,45,1.5,56.17318,10.18896,56.75232,1.3,279.1406,6,5,1417175891,-0.26651,0.6420135,0.1441193,31.51759,17.03073,15.3628,266.3969,264.1186,20,0.05821484,-0.4385265,-1.441276,-0.1077516,1.890652,-0.5589524,-0.8197482,-0.7228943,-0.752494,-0.7152417,0.01778214,0.008340674,0.0.0.0,10.205.173.28,1,0
2014-11-28 12:58:11.410,46,1.533333,56.17318,10.18896,56.75232,1.3,279.1406,6,5,1417175891,0.553894,0.7846832,-0.5494232,31.31509,17.43701,15.62722,265.8798,263.6015,20,0.9864511,-1.018175,-1.597722,-0.08922908,1.885646,-0.5944763,0.1755174,-0.1989724,-1.514295,-0.4087508,0.2180928,-0.1382302,0.0.0.0,10.205.173.28,1,0
2014-11-28 12:58:11.443,47,1.566667,56.17318,10.18896,56.75232,1.3,279.1406,6,5,1417175891,1.43692,1.283508,0.2189636,31.39946,18.0972,14.61913,266.7615,264.4832,20,0.4191198,-1.75284,-1.53182,-0.105379,1.803599,-0.6926983,0.5425541,-2.278561,-1.736382,1.183591,0.7681682,0.2062704,0.0.0.0,10.205.173.28,1,0
2014-11-28 12:58:11.476,48,1.6,56.17318,10.18896,56.75232,1.3,279.1406,6,5,1417175891,1.062546,1.367096,0.1403503,31.0957,18.84206,13.36315,267.3015,265.0232,20,0.6481548,-0.5758961,-1.297019,-0.1037711,1.76546,-0.7453767,0.2744339,-0.623886,-1.617644,0.3415923,0.6888472,-0.001793445,0.0.0.0,10.205.173.28,1,0
2014-11-28 12:58:11.511,49,1.633333,56.17318,10.18896,56.75232,1.3,279.1406,6,5,1417175891,0.575119,0.8261108,-0.1961365,31.12946,21.31355,11.18173,270.4538,268.1755,20,0.2593474,-1.491,0.09186574,-0.1221834,1.727584,-0.778925,0.4019402,-1.219546,-0.3160286,0.01866357,0.2567748,-0.1727086,0.0.0.0,10.205.173.28,1,0
2014-11-28 12:58:11.543,50,1.666667,56.17318,10.18896,56.75232,1.3,279.1406,6,5,1417175891,1.323471,0.2338715,0.01521301,31.24757,22.0076,9.710915,270.0933,267.815,20,1.094029,-3.174917,1.466989,-0.1369149,1.664253,-0.769795,0.5086626,-2.085778,0.7521868,0.04135152,-0.01169239,-0.2307056,0.0.0.0,10.205.173.28,1,0
2014-11-28 12:58:11.576,51,1.7,56.17318,10.18896,56.75232,1.3,279.1406,6,5,1417175891,-0.1448517,0.3102112,-0.008209229,32.09135,21.83832,7.95916,267.6631,265.3848,20,0.8877283,-2.614651,2.041202,-0.1890677,1.515871,-0.7084135,1.278757,-3.604195,2.577013,-0.007334319,-0.5325115,0.2214684,0.0.0.0,10.205.173.28,1,0
2014-11-28 12:58:11.610,52,1.733333,56.17318,10.18896,56.75232,1.3,279.1406,6,5,1417175891,0.7409363,0.1910248,-0.3949127,33.44138,21.56746,5.480263,263.9399,261.6616,20,-0.5462748,-2.473163,2.103498,-0.1932127,1.426564,-0.6503903,-0.3922518,-2.707479,1.604176,-0.6448836,-0.2425057,-0.2774103,0.0.0.0,10.205.173.28,1,0
2014-11-28 12:58:11.643,53,1.766667,56.17318,10.18896,56.75232,1.3,279.1406,6,5,1417175891,-0.4754639,0.6686554,0.01646423,35.98956,19.21446,0.4398422,254.4708,252.1926,20,-0.6360494,0.6205218,-0.09137972,-0.1580698,1.394568,-0.5899524,-0.5254736,-0.1904472,1.412437,-0.5684479,-0.241731,0.1670763,0.0.0.0,10.205.173.28,1,0
2014-11-28 12:58:11.676,54,1.8,56.17318,10.18896,56.75232,1.3,279.1406,6,5,1417175891,0.2444153,0.9606628,-0.6037903,36.8502,18.55426,-1.493706,249.1959,246.9176,20,-1.170145,-0.8992214,-1.374036,-0.1303171,1.410335,-0.6034193,-1.059484,-0.6578523,-1.064934,-1.753908,0.5210397,0.01842868,0.0.0.0,10.205.173.28,1,0
2014-11-28 12:58:11.789,55,1.833333,56.17318,10.18896,56.75232,1.3,279.1406,6,5,1417175891,0.8707428,1.163101,-0.876709,34.82515,20.55176,-2.584419,242.2584,239.9801,20,1.288623,1.291243,0.7729066,-0.06691349,1.51453,-0.6870862,0.5514346,1.506823,0.4490715,0.7110361,0.2240959,-0.7666738,0.0.0.0,10.205.173.28,1,0
2014-11-28 12:58:11.794,56,1.866667,56.17318,10.18896,56.75232,1.3,279.1406,6,5,1417175891,1.020187,0.9525909,-0.7707367,34.82515,20.55176,-2.584419,242.2584,239.9801,20,1.308779,0.3007718,0.7725913,-0.09224335,1.530803,-0.6686782,1.253673,1.297818,0.7830893,0.08672843,0.5431518,-0.8453366,0.0.0.0,10.205.173.28,1,0
2014-11-28 12:58:11.810,57,1.9,56.17318,10.18896,56.75232,1.3,279.1406,6,5,1417175891,1.233368,0.7062378,-0.3200531,34.25139,20.85649,-2.452209,242.0816,239.8033,20,1.09483,-0.4738626,0.7773491,-0.1090866,1.526708,-0.6601345,1.273829,0.3073472,0.782774,0.2310452,0.3393678,-0.7359223,0.0.0.0,10.205.173.28,1,0
2014-11-28 12:58:11.844,58,1.933333,56.17318,10.18896,56.75232,1.3,279.1406,6,5,1417175891,1.233368,0.7062378,-0.3200531,34.25139,20.85649,-2.452209,242.0816,239.8033,20,1.09483,-0.4738626,0.7773491,-0.1090866,1.526708,-0.6601345,1.273829,0.3073472,0.782774,0.2310452,0.3393678,-0.7359223,0.0.0.0,10.205.173.28,1,0
2014-11-28 12:58:11.877,59,1.966667,56.17318,10.18896,56.75232,1.3,279.1406,6,5,1417175891,0.5014191,0.9458313,-0.05714417,33.88016,20.68721,-3.21241,240.483,238.2047,20,-0.449601,-0.3436911,-0.5680701,-0.1710552,1.473278,-0.6276461,0.007271014,-0.4330604,0.04252138,0.3708862,0.3886195,0.4931597,0.0.0.0,10.205.173.28,1,0
2014-11-28 12:58:11.910,60,2,56.17318,10.18896,56.75232,1.3,279.1406,6,5,1417175891,0.3790588,0.734726,0.03721619,33.91391,20.65337,-3.675133,240.0536,237.7753,20,-0.9638486,-0.4012891,-0.9017828,-0.1573942,1.469954,-0.6435735,-0.5712546,-0.5153857,-0.8209596,-0.5842074,0.295633,-0.1860227,0.0.0.0,10.205.173.28,1,0
2014-11-28 12:58:11.943,61,2.033334,56.17318,10.18896,56.75232,1.3,279.1406,6,5,1417175891,0.6995697,0.8517151,0.1589203,33.42453,21.11041,-3.889969,246.5898,244.3116,20,-1.489107,0.04328729,-0.9141149,-0.1226916,1.477408,-0.6749393,-1.380793,-0.3224482,-0.8885356,-0.345107,0.1104254,0.2506175,0.0.0.0,10.205.173.28,1,0
2014-11-28 12:58:11.976,62,2.066667,56.17318,10.18896,56.75232,1.3,279.1406,6,5,1417175891,0.7825623,0.7470551,-0.01463318,31.90573,22.66782,-3.724709,245.7746,243.4963,20,-1.068456,0.2255194,-1.164581,-0.06369619,1.515352,-0.7080831,-1.360169,0.2853962,-1.034716,-0.05887303,0.2013362,0.2010148,0.0.0.0,10.205.173.28,1,0
2014-11-28 12:58:12.010,63,2.1,56.17318,10.18896,56.75232,1.3,279.1406,6,5,1417175891,0.8772888,0.2507935,-0.2168579,31.24759,23.83583,-3.04715,246.002,243.7237,20,-0.4428682,-0.6782035,-0.9976745,-0.01809783,1.554115,-0.7459226,-0.9166785,0.1218974,-1.212467,0.05613696,-0.03546128,-0.08020147,0.0.0.0,10.205.173.28,1,0
2014-11-28 12:58:12.043,64,2.133333,56.17318,10.18896,56.75232,1.3,279.1406,6,5,1417175891,0.07324219,0.3938293,-0.1061707,30.64006,24.98695,-2.452209,246.1974,243.9192,20,-0.6550825,-0.7684602,0.4221592,0.004811819,1.554143,-0.7770591,-0.2932267,-0.8380502,-0.5284399,0.09830789,-0.6292862,-0.1421339,0.0.0.0,10.205.173.28,1,0
2014-11-28 12:58:12.076,65,2.166667,56.17318,10.18896,56.75232,1.3,279.1406,6,5,1417175891,0.5067139,0.4536285,-0.2129211,30.6232,25.71487,-1.840744,247.7098,245.4315,20,-1.790818,-0.8422021,1.198957,0.03318411,1.548439,-0.7680926,-1.282623,-0.8946853,0.6677028,-0.6458152,-0.3009353,-0.09009162,0.0.0.0,10.205.173.28,1,0
2014-11-28 12:58:12.110,66,2.2,56.17318,10.18896,56.75232,1.3,279.1406,6,5,1417175891,0.9494171,0.8673706,-0.002716064,31.31509,25.59639,-0.799614,244.4826,242.2043,20,-0.3113787,-0.2950905,3.079301,0.1062741,1.572884,-0.7316387,-1.572906,-0.7071229,1.809809,0.4273077,-0.05216883,-0.3377655,0.0.0.0,10.205.173.28,1,0
2014-11-28 12:58:12.143,67,2.233333,56.17318,10.18896,56.75232,1.3,279.1406,6,5,1417175891,-0.3196411,1.076416,0.4780121,32.412,24.56375,-0.5186615,238.0168,235.7385,20,-0.1567625,0.0941012,1.993517,0.128942,1.578023,-0.6425477,-0.08868033,0.1822669,2.787331,-0.3679946,0.2510438,0.0475443,0.0.0.0,10.205.173.28,1,0
2014-11-28 12:58:12.176,68,2.266667,56.17318,10.18896,56.75232,1.3,279.1406,6,5,1417175891,-0.4333038,1.334473,0.1342621,33.39076,23.20952,-0.2873077,236.344,234.0657,20,1.694764,1.7586,-1.835356,0.1406344,1.596511,-0.5740605,0.5254358,0.4385836,-0.4851748,-1.322427,0.6848744,-0.6889488,0.0.0.0,10.205.173.28,1,0
2014-11-28 12:58:12.209,69,2.3,56.17318,10.18896,56.75232,1.3,279.1406,6,5,1417175891,0.4348602,1.060974,0.9545593,34.04889,22.27846,-0.1385727,231.9261,229.6478,20,-0.7063606,1.670829,-1.220821,0.1061788,1.644499,-0.6319336,-0.1673462,2.375283,-1.736542,-0.3698361,0.4702681,0.8951436,0.0.0.0,10.205.173.28,1,0
2014-11-28 12:58:12.243,70,2.333333,56.17319,10.18893,56.53552,1.34,293.5547,6,5,1417175892,0.6244049,0.6197815,-1.338577,33.7114,22.58318,1.811493,238.2173,235.939,20,0.4583788,2.24309,-2.003982,0.1457016,1.739496,-0.6815299,-1.018456,3.085206,-2.428994,-0.967535,0.5331346,0.1955188,0.0.0.0,10.205.173.28,1,0
2014-11-28 12:58:12.279,71,2.366667,56.17319,10.18893,56.53552,1.34,293.5547,6,5,1417175892,-0.11026,0.4971771,-0.06414795,32.0576,23.80199,3.298836,240.6182,238.3399,20,0.9764217,2.17261,-2.404,0.1330453,1.801889,-0.7475464,0.9785836,1.998895,-2.02316,-0.5447356,-0.1388105,-0.2324685,0.0.0.0,10.205.173.28,1,0
2014-11-28 12:58:12.310,72,2.4,56.17319,10.18893,56.53552,1.34,293.5547,6,5,1417175892,0.3913727,0.6167755,0.1785583,30.58946,25.30859,4.472176,244.301,242.0227,20,1.41855,2.424393,-3.681604,0.126302,1.872045,-0.8443856,1.154338,2.368176,-3.560581,-0.2429074,-0.1307876,-0.01851542,0.0.0.0,10.205.173.28,1,0
2014-11-28 12:58:12.343,73,2.433333,56.17319,10.18893,56.53552,1.34,293.5547,6,5,1417175892,3.779068,1.126556,0.5798035,25.61122,29.52373,7.066765,265.4926,263.2143,20,1.265559,2.828939,-0.6137455,0.1158495,1.941613,-0.9620019,1.359516,2.49339,-2.690485,2.061946,0.3779652,0.4024139,0.0.0.0,10.205.173.28,1,0
2014-11-28 12:58:12.375,74,2.466667,56.17319,10.18893,56.53552,1.34,293.5547,6,5,1417175892,2.23732,1.455383,-0.008087158,23.4343,30.82718,7.975693,275.1598,272.8815,20,0.7770295,3.767925,2.610005,0.0448443,1.979081,-0.9597139,0.8947424,3.814372,1.889665,2.288363,0.6530489,0.2814613,0.0.0.0,10.205.173.28,1,0
2014-11-28 12:58:12.409,75,2.5,56.17319,10.18893,56.53552,1.34,293.5547,6,5,1417175892,-0.4178772,1.334839,-0.4565277,22.35428,31.53816,8.570625,280.706,278.4277,20,0.6724175,2.843153,3.38857,-0.05921219,2.014007,-0.876697,0.6194128,3.761817,3.70564,1.17161,0.8733529,-0.2682848,0.0.0.0,10.205.173.28,1,0
2014-11-28 12:58:12.443,76,2.533334,56.17319,10.18893,56.53552,1.34,293.5547,6,5,1417175892,0.3055267,1.339264,0.1478577,23.04616,30.70869,10.10754,284.3568,282.0785,20,-0.3156394,-2.268911,3.210575,-0.1463589,1.987427,-0.7983799,0.3943371,-1.476506,2.553027,-0.4410118,0.7492735,-0.4212696,0.0.0.0,10.205.173.28,1,0
2014-11-28 12:58:12.476,77,2.566667,56.17319,10.18893,56.53552,1.34,293.5547,6,5,1417175892,1.761871,0.9779205,-0.6092987,24.9362,28.91431,10.10754,283.7278,281.4496,20,-1.615128,2.782091,0.621814,-0.1685318,1.886823,-0.7065163,-0.938693,-2.143634,2.173671,-0.5724779,1.203488,0.09599988,0.0.0.0,10.205.173.28,1,0
2014-11-28 12:58:12.510,78,2.6,56.17319,10.18893,56.53552,1.34,293.5547,6,5,1417175892,-0.646347,0.9867401,0.1712036,27.16376,26.91679,10.17365,280.0181,277.7398,20,-1.526595,-0.219796,0.8030586,-0.1395333,1.927276,-0.6303133,-1.833582,-0.572899,2.339566,-1.153158,0.9486271,0.115115,0.0.0.0,10.205.173.28,1,0
2014-11-28 12:58:12.543,79,2.633333,56.17319,10.18893,56.53552,1.34,293.5547,6,5,1417175892,0.1337738,0.5759888,-0.07913208,29.12128,25.39325,10.33891,270.451,268.1727,20,-0.9179764,0.9059786,-0.007896006,-0.07326682,1.925996,-0.596271,-1.298537,-1.205454,-0.07191449,-0.4366273,0.01332923,-0.2090741,0.0.0.0,10.205.173.28,1,0
2014-11-28 12:58:12.576,80,2.666667,56.17319,10.18893,56.53552,1.34,293.5547,6,5,1417175892,0.5109711,0.2012634,-0.2379913,31.19696,23.00636,11.24784,263.4459,261.1676,20,-0.9913963,1.799598,0.6926147,-0.03549903,1.967657,-0.5839694,-1.050053,2.073223,0.02780457,-0.4150389,-0.1721437,-0.2728795,0.0.0.0,10.205.173.28,1,0
2014-11-28 12:58:12.610,81,2.7,56.17319,10.18893,56.53552,1.34,293.5547,6,5,1417175892,0.0466156,-0.4175568,-0.2605438,31.53447,22.46468,12.66907,262.0705,259.7922,20,-0.2769211,0.2948668,-0.1015114,-0.01132548,2.04176,-0.555355,-0.8748984,2.053645,0.406673,-0.7864116,-0.4321674,-0.4982396,0.0.0.0,10.205.173.28,1,0
2014-11-28 12:58:12.671,82,2.733334,56.17319,10.18893,56.53552,1.34,293.5547,6,5,1417175892,0.7590027,0.5649414,-0.7884674,30.75821,22.8371,13.82589,263.1414,260.8631,20,2.721999,-3.440068,-1.826638,-0.124345,1.812132,-0.6884614,2.384068,-5.177685,-1.863115,0.0133538,0.1114916,-0.3551703,0.0.0.0,10.205.173.28,1,0
2014-11-28 12:58:12.709,83,2.766667,56.17319,10.18893,56.53552,1.34,293.5547,6,5,1417175892,0.7590027,0.5649414,-0.7884674,30.38695,24.29292,11.94193,264.5568,262.2785,20,2.721999,-3.440068,-1.826638,-0.124345,1.812132,-0.6884614,2.384068,-5.177685,-1.863115,0.0133538,0.1114916,-0.3551703,0.0.0.0,10.205.173.28,1,0
2014-11-28 12:58:12.726,84,2.8,56.17319,10.18893,56.53552,1.34,293.5547,6,5,1417175892,0.7590027,0.5649414,-0.7884674,30.38695,24.29292,11.94193,264.5568,262.2785,20,2.721999,-3.440068,-1.826638,-0.124345,1.812132,-0.6884614,2.384068,-5.177685,-1.863115,0.0133538,0.1114916,-0.3551703,0.0.0.0,10.205.173.28,1,0
2014-11-28 12:58:12.743,85,2.833333,56.17319,10.18893,56.53552,1.34,293.5547,6,5,1417175892,0.7590027,0.5649414,-0.7884674,30.38695,24.29292,11.94193,264.5568,262.2785,20,2.721999,-3.440068,-1.826638,-0.124345,1.812132,-0.6884614,2.384068,-5.177685,-1.863115,0.0133538,0.1114916,-0.3551703,0.0.0.0,10.205.173.28,1,0
2014-11-28 12:58:12.776,86,2.866667,56.17319,10.18893,56.53552,1.34,293.5547,6,5,1417175892,0.2430267,1.548492,0.2634888,29.72882,27.5262,5.513313,275.7818,273.5035,20,-0.5592412,-1.662362,0.462374,-0.3161742,1.527663,-0.7493361,1.805514,-1.100322,0.7146358,-0.1717527,-1.118683,0.01599032,0.0.0.0,10.205.173.28,1,0
2014-11-28 12:58:12.810,87,2.9,56.17319,10.18893,56.53552,1.34,293.5547,6,5,1417175892,1.419128,1.16272,-1.362091,28.66568,29.10051,-0.155098,273.9277,271.6494,20,0.1402293,-2.542228,0.8255631,-0.3010703,1.486478,-0.7277354,-0.224526,-2.122698,0.8869172,0.7241555,0.2622336,-1.082974,0.0.0.0,10.205.173.28,1,0
2014-11-28 12:58:12.844,88,2.933333,56.17319,10.18893,56.53552,1.34,293.5547,6,5,1417175892,0.03146362,1.842896,-0.6521912,28.66568,29.20207,-2.171257,269.5031,267.2249,20,-1.455205,-0.5499353,-0.1480206,-0.2290596,1.422621,-0.6848311,-1.079569,-1.098075,0.4342285,-0.7345751,1.210353,-0.5378448,0.0.0.0,10.205.173.28,1,0
2014-11-28 12:58:12.876,89,2.966667,56.17319,10.18893,56.53552,1.34,293.5547,6,5,1417175892,0.8868256,1.720749,-0.3474884,29.03694,29.10051,-3.592491,266.1547,263.8764,20,-1.295378,0.8182365,0.7664972,-0.2100105,1.42892,-0.6871499,-1.490239,-0.5433549,-0.1378457,-0.733826,1.208559,-0.54288,0.0.0.0,10.205.173.28,1,0
2014-11-28 12:58:12.910,90,3,56.17319,10.18893,56.53552,1.34,293.5547,6,5,1417175892,0.7357635,1.410767,0.4320374,30.20135,28.98199,-3.278519,256.9704,254.6921,20,-1.996509,2.402305,1.275771,-0.1008499,1.575577,-0.6601073,-1.856635,3.225965,0.9226995,0.3028255,0.7841831,0.4255296,0.0.0.0,10.205.173.28,1,0
2014-11-28 12:58:12.943,91,3.033334,56.17319,10.18893,56.53552,1.34,293.5547,6,5,1417175892,0.2473145,0.3950043,0.2841034,30.20135,28.98199,-3.278519,256.9704,254.6921,20,-2.035126,2.732771,1.118061,-0.02269999,1.706079,-0.6174564,-2.09151,2.858312,1.039665,-0.3605622,0.5703442,0.4826236,0.0.0.0,10.205.173.28,1,0
2014-11-28 12:58:12.976,92,3.066667,56.17319,10.18893,56.53552,1.34,293.5547,6,5,1417175892,0.06974792,-0.4566803,-0.6275024,32.142,26.59514,0.7372971,250.6518,248.3736,20,-0.09953564,0.9684647,-0.06693456,0.0345863,1.807504,-0.5772706,-0.1384639,0.7918522,0.978687,-0.7448412,-1.002419,-0.8240059,0.0.0.0,10.205.173.28,1,0
2014-11-28 12:58:13.010,93,3.1,56.17319,10.18893,56.53552,1.34,293.5547,6,5,1417175892,0.4147491,0.1166229,0.1821442,32.80016,24.68224,5.546356,244.287,242.0087,20,0.5661294,-1.043309,-2.034686,0.04479945,1.830142,-0.5957987,-0.03193695,-0.3536182,-1.615418,-0.8378319,-0.5711035,0.02225018,0.0.0.0,10.205.173.28,1,0
2014-11-28 12:58:13.043,94,3.133333,56.17319,10.18893,56.53552,1.34,293.5547,6,5,1417175892,1.829285,0.5444336,0.1993256,32.95203,24.49603,6.455292,247.9017,245.6234,20,0.5959872,0.1118978,-0.2086336,0.03955985,1.793965,-0.6465576,0.387347,-1.011188,-0.492279,1.819028,-0.1027781,1.17238,0.0.0.0,10.205.173.28,1,0
2014-11-28 12:58:13.076,95,3.166667,56.17319,10.18893,56.53552,1.34,293.5547,6,5,1417175892,1.300308,0.7055511,-0.07521057,32.74953,24.69919,7.215485,254.61,252.3317,20,0.5486096,0.2140849,1.89073,0.006701968,1.780071,-0.635559,0.8661261,0.1882458,1.551411,0.5131261,0.1119237,-0.2423955,0.0.0.0,10.205.173.28,1,0
2014-11-28 12:58:13.109,96,3.2,56.17319,10.18893,56.53552,1.34,293.5547,6,5,1417175892,0.4568634,1.19281,1.391678,33.01953,24.69919,7.314636,256.7102,254.4319,20,-2.551916,1.37746,1.302578,-0.0110236,1.779558,-0.5850056,-0.7374662,0.5856911,1.265215,-0.5398662,0.6468469,0.4023951,0.0.0.0,10.205.173.28,1,0
2014-11-28 12:58:13.143,97,3.233334,56.17319,10.18893,56.53552,1.34,293.5547,6,5,1417175892,-0.3932037,0.5808411,-0.03904724,33.94768,23.53113,7.992195,252.2687,249.9904,20,-1.577305,0.8562154,0.3450234,0.04435214,1.836601,-0.5374972,-1.505976,0.9931862,0.8845053,-0.8426201,0.0001583427,-0.5072617,0.0.0.0,10.205.173.28,1,0
2014-11-28 12:58:13.176,98,3.266667,56.17319,10.18893,56.53552,1.34,293.5547,6,5,1417175892,0.7451324,0.5416565,0.1114807,34.57207,22.87094,8.801964,248.8201,246.5418,20,-1.004872,-0.2537907,-0.5594148,0.09671271,1.878515,-0.522739,-1.252169,-0.1757937,-0.4860287,-1.27296,-0.05549912,-0.2740332,0.0.0.0,10.205.173.28,1,0
2014-11-28 12:58:13.209,99,3.3,56.1732,10.18891,56.01007,1.31,303.75,6,5,1417175893,0.7646942,0.5748596,-0.02842712,35.06145,21.80446,9.743942,245.6044,243.3261,20,-0.7658439,0.5834344,-0.2079513,0.1352604,1.897111,-0.5268742,-0.8793481,0.3752865,-0.2589767,0.1100785,0.1634106,-0.06600666,0.0.0.0,10.205.173.28,1,0
2014-11-28 12:58:13.243,100,3.333333,56.1732,10.18891,56.01007,1.31,303.75,6,5,1417175893,0.9427185,0.7492371,0.1608124,35.19644,21.02576,10.93382,245.662,243.3837,20,-1.332442,1.198546,0.393416,0.1752097,1.945501,-0.5099843,-0.8566532,0.7143676,0.4148573,-0.1654074,0.05007495,-1.612638,0.0.0.0,10.205.173.28,1,0
2014-11-28 12:58:13.276,101,3.366667,56.1732,10.18891,56.01007,1.31,303.75,6,5,1417175893,0.4146118,0.2634735,0.04808044,34.67332,19.95929,13.36313,244.6221,242.3438,20,-1.150537,1.058229,0.5154719,0.2108998,2.00821,-0.4782095,-1.361616,1.325483,0.7113574,-0.09553772,0.05216935,-0.4114795,0.0.0.0,10.205.173.28,1,0
2014-11-28 12:58:13.309,102,3.4,56.1732,10.18891,56.01007,1.31,303.75,6,5,1417175893,0.3928528,0.02587891,0.0004119873,34.26831,19.11288,14.45385,240.5835,238.3052,20,-0.1529544,0.2971044,-0.07613099,0.2348437,2.04735,-0.4521998,-0.5528426,0.576947,0.1912201,-0.4595462,-0.2600349,-0.4226686,0.0.0.0,10.205.173.28,1,0
2014-11-28 12:58:13.343,103,3.433333,56.1732,10.18891,56.01007,1.31,303.75,6,5,1417175893,0.5299072,0.2067261,0.04840088,34.06581,19.01132,15.44541,239.4347,237.1564,20,1.238279,-0.3202409,-0.9763047,0.2329919,2.064276,-0.4707137,0.7261984,0.5219897,-0.7550983,-0.1347637,-0.274308,-0.3569303,0.0.0.0,10.205.173.28,1,0
2014-11-28 12:58:13.376,104,3.466667,56.1732,10.18891,56.01007,1.31,303.75,6,5,1417175893,0.219696,0.419754,0.1295166,33.30641,19.53609,16.38739,242.9869,240.7086,20,1.67713,-1.735378,-1.79654,0.2143477,2.048585,-0.5156537,1.470196,-0.9248072,-1.246589,-0.1822293,-0.2096716,-0.4890924,0.0.0.0,10.205.173.28,1,0
2014-11-28 12:58:13.411,105,3.5,56.1732,10.18891,56.01007,1.31,303.75,6,5,1417175893,1.702087,0.7206726,0.1319275,33.03641,20.78876,15.49499,246.5347,244.2564,20,1.712221,-1.777383,-1.761651,0.1890192,1.981782,-0.5911939,1.654909,-2.263099,-1.539571,1.348253,0.1864065,-0.03380859,0.0.0.0,10.205.173.28,1,0
2014-11-28 12:58:13.442,106,3.533334,56.1732,10.18891,56.01007,1.31,303.75,6,5,1417175893,1.702087,0.7206726,0.1319275,33.03641,20.78876,15.49499,246.5347,244.2564,20,1.712221,-1.777383,-1.761651,0.1890192,1.981782,-0.5911939,1.654909,-2.263099,-1.539571,1.348253,0.1864065,-0.03380859,0.0.0.0,10.205.173.28,1,0
2014-11-28 12:58:13.476,107,3.566667,56.1732,10.18891,56.01007,1.31,303.75,6,5,1417175893,0.2454071,1.492798,0.8651733,31.50075,24.12361,12.66904,257.3096,255.0313,20,-0.2229353,-1.886739,-0.7301354,0.1418821,1.893874,-0.7194286,0.7703827,-0.1710629,-1.019682,0.03793889,0.7623554,-0.426796,0.0.0.0,10.205.173.28,1,0
2014-11-28 12:58:13.509,108,3.6,56.1732,10.18891,56.01007,1.31,303.75,6,5,1417175893,0.7200928,1.085403,-0.06562805,30.57262,27.15378,9.413422,258.9178,256.6395,20,-0.2071393,-1.308801,-0.007534083,0.1525922,1.84867,-0.7409307,-0.4261128,-1.673916,-0.6401979,-0.4073985,0.6592841,0.3602088,0.0.0.0,10.205.173.28,1,0
2014-11-28 12:58:13.543,109,3.633333,56.1732,10.18891,56.01007,1.31,303.75,6,5,1417175893,0.7830963,1.469589,0.233429,30.06635,27.83089,8.322708,256.6479,254.3696,20,0.2329366,-1.136002,0.6117286,0.1647429,1.814837,-0.74011,-0.1262778,-1.010679,0.4783129,-0.1087426,0.7332694,0.001699831,0.0.0.0,10.205.173.28,1,0
2014-11-28 12:58:13.576,110,3.666667,56.1732,10.18891,56.01007,1.31,303.75,6,5,1417175893,0.9470215,1.140549,0.1897125,30.28572,28.35567,7.512939,254.2196,251.9413,20,0.5879533,-1.034095,0.4654098,0.1528513,1.771527,-0.7238612,0.2921894,-1.326096,0.4918521,0.04888636,0.8073066,0.08403873,0.0.0.0,10.205.173.28,1,0
2014-11-28 12:58:13.610,111,3.7,56.1732,10.18891,56.01007,1.31,303.75,6,5,1417175893,0.5830841,1.294495,0.1169128,31.09575,27.98323,5.562874,250.889,248.6107,20,1.033386,-0.582579,0.9410663,0.127452,1.721102,-0.7111955,0.7183486,-0.8644493,0.6890982,0.1880627,0.3366399,-0.03652098,0.0.0.0,10.205.173.28,1,0
2014-11-28 12:58:13.643,112,3.733334,56.1732,10.18891,56.01007,1.31,303.75,6,5,1417175893,-0.2176056,1.042526,0.2819214,31.78764,27.56004,4.885307,251.4964,249.2181,20,0.443794,0.1995917,0.8625654,0.05819408,1.653504,-0.6599137,0.7390948,-0.05149286,1.227942,-0.6012025,0.372196,0.04349613,0.0.0.0,10.205.173.28,1,0
2014-11-28 12:58:13.676,113,3.766667,56.1732,10.18891,56.01007,1.31,303.75,6,5,1417175893,-0.4170532,0.7505188,-0.2312927,32.27702,27.2384,3.844177,249.2508,246.9725,20,0.9272805,-0.5349071,-1.053146,0.03757298,1.648135,-0.6554642,0.6471147,-0.04777778,-0.5413409,-1.215261,-0.0184171,-0.2943131,0.0.0.0,10.205.173.28,1,0
2014-11-28 12:58:13.710,114,3.8,56.1732,10.18891,56.01007,1.31,303.75,6,5,1417175893,0.4739075,0.2277527,-0.3276367,32.47951,27.03528,3.050926,247.8726,245.5943,20,1.039324,-1.209835,-2.156801,0.004852914,1.608108,-0.7057505,0.9266222,-1.05163,-2.064231,-1.092413,-0.0340117,-0.07508405,0.0.0.0,10.205.173.28,1,0
2014-11-28 12:58:13.743,115,3.833333,56.1732,10.18891,56.01007,1.31,303.75,6,5,1417175893,1.803101,-0.2724457,-0.3915863,32.36139,28.23717,1.150436,249.9755,247.6973,20,1.973821,-0.8355897,0.3112136,-0.04020686,1.562954,-0.7602062,1.407061,-0.1993043,-0.6033948,1.423628,-0.9200736,-0.2376181,0.0.0.0,10.205.173.28,1,0
2014-11-28 12:58:13.777,116,3.866667,56.1732,10.18891,56.01007,1.31,303.75,6,5,1417175893,0.9653931,0.0004882812,-0.3061523,31.97325,29.20207,-0.5517426,251.923,249.6447,20,2.61774,-2.986011,0.01910232,-0.1305176,1.450273,-0.7478696,2.354832,-2.858101,0.1425517,0.07913995,-0.6942538,-0.3215214,0.0.0.0,10.205.173.28,1,0
2014-11-28 12:58:13.810,117,3.9,56.1732,10.18891,56.01007,1.31,303.75,6,5,1417175893,-0.06506348,0.3309479,-0.1807098,31.61887,29.7607,-2.220863,250.0697,247.7914,20,1.743664,1.005061,-0.2578979,-0.2385234,1.31083,-0.7270457,2.402824,-0.4193049,0.09721667,-0.2687129,-0.3510666,-0.07227661,0.0.0.0,10.205.173.28,1,0
2014-11-28 12:58:13.843,118,3.933334,56.1732,10.18891,56.01007,1.31,303.75,6,5,1417175893,0.446228,0.9349518,-0.5056915,31.45009,29.96384,-5.922668,261.0689,258.7906,20,0.04457279,0.1867345,-0.1221531,-0.2920351,1.29634,-0.7194572,0.5153158,0.2739114,0.03079949,-0.5075661,0.07297235,-0.2746919,0.0.0.0,10.205.173.28,1,0
2014-11-28 12:58:13.876,119,3.966667,56.1732,10.18891,56.01007,1.31,303.75,6,5,1417175893,0.9164734,1.135605,-0.4293976,31.34885,29.59142,-7.2117,259.3749,257.0966,20,-0.2262443,-0.9888149,0.182515,-0.2902967,1.291953,-0.7195622,-0.1467403,-0.6881405,0.1610094,0.06197459,0.2926809,-0.3546365,0.0.0.0,10.205.173.28,1,0
2014-11-28 12:58:13.910,120,4,56.1732,10.18891,56.01007,1.31,303.75,6,5,1417175893,0.7765503,0.9204865,-0.8347778,31.33199,29.20207,-7.955376,256.7651,254.4868,20,-0.2583871,-0.6505908,0.1670883,-0.2774903,1.269714,-0.7166017,-0.2602107,-0.8234162,0.1354989,0.1363992,0.5406228,-0.1594881,0.0.0.0,10.205.173.28,1,0
2014-11-28 12:58:13.943,121,4.033334,56.1732,10.18891,56.01007,1.31,303.75,6,5,1417175893,0.8108978,0.9757843,-0.6596375,31.60197,29.23593,-8.318947,255.9381,253.6599,20,-0.06399176,0.5505438,0.5142173,-0.2638525,1.262312,-0.7085739,-0.1209356,-0.05961374,0.5014558,-0.1137833,0.3131308,-0.4266182,0.0.0.0,10.205.173.28,1,0
2014-11-28 12:58:13.976,122,4.066667,56.1732,10.18891,56.01007,1.31,303.75,6,5,1417175893,0.7061462,1.127823,-0.2557678,31.77074,29.06665,-8.285881,254.7408,252.4625,20,-0.7607008,0.3690593,0.4599452,-0.2460377,1.288129,-0.6904305,-0.4900618,0.3743078,0.8304874,0.2440601,0.4502433,-0.1546675,0.0.0.0,10.205.173.28,1,0
2014-11-28 12:58:14.010,123,4.1,56.1732,10.18891,56.01007,1.31,303.75,6,5,1417175893,0.9585419,1.107834,-0.04119873,31.9395,29.10049,-8.021469,253.5091,251.2308,20,-1.559385,-0.4248386,-0.07140734,-0.1858027,1.320656,-0.7033915,-1.575202,-0.806964,-0.4094698,0.4275254,0.5528533,-0.08555093,0.0.0.0,10.205.173.28,1,0
2014-11-28 12:58:14.043,124,4.133334,56.1732,10.18891,56.01007,1.31,303.75,6,5,1417175893,-1.875,2.763214,1.051407,32.09138,29.11743,-7.674431,250.2238,247.9455,20,0.1336654,0.89715,2.000073,-0.1242495,1.345297,-0.7191174,-1.125919,-0.2907296,0.2851568,0.241301,0.375352,0.092118,0.0.0.0,10.205.173.28,1,0
2014-11-28 12:58:14.077,125,4.166667,56.1732,10.18891,56.01007,1.31,303.75,6,5,1417175893,-0.5883179,1.042938,0.2821198,32.34451,27.98323,-7.228233,244.5249,242.2466,20,-1.383934,0.6868468,-1.793699,-0.1175441,1.370403,-0.6750343,0.08153002,2.23175,-1.354869,-2.971621,0.8220363,0.9147837,0.0.0.0,10.205.173.28,1,0
2014-11-28 12:58:14.109,126,4.2,56.1732,10.18891,56.01007,1.31,303.75,6,5,1417175893,0.4838562,0.9007721,-0.2178345,32.24327,28.42336,-6.468025,243.9321,241.6538,20,-1.338278,1.876951,-1.612812,-0.08492453,1.426514,-0.7356825,-1.458028,1.780512,-2.040939,-0.6802027,0.4851567,0.0576003,0.0.0.0,10.205.173.28,1,0
2014-11-28 12:58:14.143,127,4.233334,56.1732,10.18891,56.01007,1.31,303.75,6,5,1417175893,0.4028168,0.6677551,-0.2825317,31.80452,28.76193,-5.344261,243.691,241.4127,20,-0.3975213,2.024703,-1.90682,-0.03240311,1.525024,-0.7947473,-1.097854,2.211381,-1.648283,-0.2861573,0.1423314,-0.133553,0.0.0.0,10.205.173.28,1,0
2014-11-28 12:58:14.176,128,4.266667,56.1732,10.18891,56.01007,1.31,303.75,6,5,1417175893,1.087677,0.08180237,-0.1392059,31.09575,29.67606,-4.220482,243.7088,241.4305,20,0.02420707,0.5787438,-1.162177,-0.003702325,1.609271,-0.8511916,-0.5357426,1.680655,-1.799416,-0.02874737,-0.6787173,-0.177787,0.0.0.0,10.205.173.28,1,0
2014-11-28 12:58:14.209,129,4.3,56.17321,10.18888,56.12531,1.32,309.7266,6,5,1417175894,1.027252,0.3016968,-0.180954,28.58131,33.11249,-0.8326569,249.8992,247.621,20,-0.03156911,0.6355695,-0.9474068,0.005741499,1.644055,-0.8909324,0.02536672,0.9163052,-0.8360462,1.314497,-0.3645723,0.01399728,0.0.0.0,10.205.173.28,1,0
2014-11-28 12:58:14.244,130,4.333333,56.17321,10.18888,56.12531,1.32,309.7266,6,5,1417175894,0.07185364,1.030136,0.131073,27.51817,34.04352,0.7372971,255.6339,253.3556,20,-0.3408593,-0.3376252,0.18629,0.009059535,1.666612,-0.916736,0.04541225,0.1285653,-0.6501853,0.5209486,-0.4650372,-0.3132721,0.0.0.0,10.205.173.28,1,0
2014-11-28 12:58:14.276,131,4.366667,56.17321,10.18888,56.12531,1.32,309.7266,6,5,1417175894,0.1910858,0.8712463,0.05627441,27.77129,34.36514,1.976746,260.5093,258.231,20,-2.681257,-2.189228,0.9946587,0.02921313,1.671278,-0.9147576,-1.146029,-1.093807,0.2086511,-0.7237272,0.1673478,0.01655446,0.0.0.0,10.205.173.28,1,0
2014-11-28 12:58:14.310,132,4.4,56.17321,10.18888,56.12531,1.32,309.7266,6,5,1417175894,0.3852081,0.7605896,0.2615204,27.80505,35.41469,6.372658,269.2896,267.0113,20,-1.717033,-0.08600412,1.02786,0.1498622,1.702139,-0.8780883,-3.16869,-2.401669,1.607268,-0.1693625,0.06490746,-0.005772149,0.0.0.0,10.205.173.28,1,0
2014-11-28 12:58:14.343,133,4.433333,56.17321,10.18888,56.12531,1.32,309.7266,6,5,1417175894,0.02519226,1.124557,-0.1665955,26.87692,35.97331,6.389183,260.0169,257.7386,20,-0.596653,0.3354648,-1.21122,0.2396671,1.748146,-0.8327706,-1.225067,-0.2259072,0.4553891,-1.048979,0.5845119,0.0569729,0.0.0.0,10.205.173.28,1,0
2014-11-28 12:58:14.376,134,4.466667,56.17321,10.18888,56.12531,1.32,309.7266,6,5,1417175894,0.3925476,0.9836273,-0.1415558,25.6619,36.37959,6.058662,255.964,253.6857,20,-0.2160029,0.837264,-0.656964,0.3147861,1.819066,-0.8712036,-0.5480468,0.6659548,-0.7895006,-0.2621181,0.286516,-0.2524479,0.0.0.0,10.205.173.28,1,0
2014-11-28 12:58:14.410,135,4.5,56.17321,10.18888,56.12531,1.32,309.7266,6,5,1417175894,0.4630432,1.037079,-0.1031799,23.07996,37.31065,5.546356,251.5969,249.3186,20,0.3841796,0.8176267,-0.4215574,0.3196612,1.855453,-0.8913773,0.6497146,1.379364,-0.6032999,-0.1400122,0.2591409,-0.279636,0.0.0.0,10.205.173.28,1,0
2014-11-28 12:58:14.442,136,4.533334,56.17321,10.18888,56.12531,1.32,309.7266,6,5,1417175894,1.307053,0.707016,-0.2500153,19.33363,36.53195,3.596283,244.7628,242.4845,20,0.203466,0.0326192,2.317992,0.2995821,1.861511,-0.8763922,0.1516302,0.2888761,1.942666,0.5858684,-0.4255244,-0.38495,0.0.0.0,10.205.173.28,1,0
2014-11-28 12:58:14.477,137,4.566667,56.17321,10.18888,56.12531,1.32,309.7266,6,5,1417175894,1.320374,0.9226532,-0.1172638,19.21548,35.12691,5.199295,248.625,246.3467,20,0.6437252,-1.173086,4.241441,0.2569098,1.823352,-0.7968037,0.2687097,-0.6364062,3.335622,0.5366334,0.1182942,-0.2839328,0.0.0.0,10.205.173.28,1,0
2014-11-28 12:58:14.510,138,4.6,56.17321,10.18888,56.12531,1.32,309.7266,6,5,1417175894,0.8851929,0.9683533,0.2408752,20.43051,33.06168,6.323059,253.8791,251.6008,20,-0.04392378,-0.7421409,3.392612,0.1894667,1.750508,-0.6657936,0.5430959,-0.3519383,4.162373,0.4640466,0.712883,0.01068975,0.0.0.0,10.205.173.28,1,0
2014-11-28 12:58:14.543,139,4.633334,56.17321,10.18888,56.12531,1.32,309.7266,6,5,1417175894,0.3916168,0.8764801,0.2268677,25.00374,25.96877,5.480232,246.1493,243.871,20,0.2173036,-1.202827,1.569448,0.1707619,1.710675,-0.5716788,0.06424589,-1.164113,2.229439,-0.2187967,0.3511215,0.06759124,0.0.0.0,10.205.173.28,1,0
2014-11-28 12:58:14.576,140,4.666667,56.17321,10.18888,56.12531,1.32,309.7266,6,5,1417175894,0.7545013,0.4730835,-0.0171051,27.99068,22.46465,3.348381,237.9342,235.6559,20,1.503534,-0.4869305,0.5866174,0.1513092,1.662216,-0.5389473,0.8000224,-1.098953,0.3462605,-0.8227441,0.2676967,-0.03773291,0.0.0.0,10.205.173.28,1,0
2014-11-28 12:58:14.610,141,4.7,56.17321,10.18888,56.12531,1.32,309.7266,6,5,1417175894,0.5335999,0.6247864,-0.332428,30.99446,19.8577,1.398323,234.6842,232.406,20,1.706456,-1.313376,1.302131,0.08723036,1.611242,-0.5071473,1.90919,-0.8613253,1.724569,-0.2041988,-0.01426523,-0.06242959,0.0.0.0,10.205.173.28,1,0
2014-11-28 12:58:14.643,142,4.733334,56.17321,10.18888,56.12531,1.32,309.7266,6,5,1417175894,0.6904449,0.8355255,-0.3682709,33.42453,18.13103,-0.2542725,233.2907,231.0124,20,2.010046,-0.3313561,-0.1210785,0.0272119,1.54181,-0.4782279,1.693215,-1.102306,0.3715487,-0.2762328,0.274794,-0.3856154,0.0.0.0,10.205.173.28,1,0
2014-11-28 12:58:14.676,143,4.766667,56.17321,10.18888,56.12531,1.32,309.7266,6,5,1417175894,2.557678,1.640823,-0.6024933,37.17085,18.13101,-2.138237,236.0884,233.8101,20,2.235118,-1.291007,0.1160078,-0.04379739,1.497336,-0.5008523,1.86638,-0.6608124,-1.699973,-0.3900819,0.9258326,-0.1736272,0.0.0.0,10.205.173.28,1,0
2014-11-28 12:58:14.710,144,4.8,56.17321,10.18888,56.12531,1.32,309.7266,6,5,1417175894,0.7834473,0.5123749,-0.05912781,38.70651,18.11407,-2.650536,240.281,238.0027,20,2.514409,-0.9185304,2.110754,-0.1289866,1.41751,-0.4498267,2.899694,-1.408815,2.323006,-0.2695411,0.1984913,-0.1475513,0.0.0.0,10.205.173.28,1,0
2014-11-28 12:58:14.743,145,4.833333,56.17321,10.18888,56.12531,1.32,309.7266,6,5,1417175894,0.632431,0.7110901,0.04794312,39.58403,17.40309,-3.97261,242.8077,240.5294,20,0.3678638,-1.675707,1.195407,-0.1833796,1.367612,-0.3765749,1.064182,-1.068784,1.564883,-0.3413726,0.4329979,0.1690796,0.0.0.0,10.205.173.28,1,0
2014-11-28 12:58:14.776,146,4.866667,56.17321,10.18888,56.12531,1.32,309.7266,6,5,1417175894,0.2406311,0.3237305,-0.1152344,40.56282,15.10086,-7.145599,239.7493,237.471,20,-0.886974,-2.198897,0.402724,-0.1729477,1.313659,-0.3452485,-0.6935334,-2.056098,0.7425015,-0.2776224,0.3726596,0.2872494,0.0.0.0,10.205.173.28,1,0
2014-11-28 12:58:14.810,147,4.9,56.17321,10.18888,56.12531,1.32,309.7266,6,5,1417175894,0.2521057,0.407608,-0.3063507,40.84972,13.89897,-8.880829,236.9369,234.6586,20,-0.705029,-1.501094,2.171064,-0.1324358,1.259684,-0.3402986,-0.6239972,-1.187646,0.5690289,-0.8313007,-0.0906045,-0.0634267,0.0.0.0,10.205.173.28,1,0
2014-11-28 12:58:14.843,148,4.933333,56.17321,10.18888,56.12531,1.32,309.7266,6,5,1417175894,0.6806641,1.233063,-0.5219269,41.06908,12.49394,-10.35164,233.9175,231.6392,20,1.108367,-2.956449,5.789819,-0.09042581,1.226341,-0.2861574,-0.351583,-1.548684,3.424,-0.2642356,0.5720564,-0.1168895,0.0.0.0,10.205.173.28,1,0
2014-11-28 12:58:14.876,149,4.966667,56.17321,10.18888,56.12531,1.32,309.7266,6,5,1417175894,0.06971741,0.3137054,-0.1401367,41.13657,10.12399,-12.1695,229.0541,226.7758,20,1.159741,2.628501,3.836929,-0.04892714,1.153233,-0.1137627,1.445638,-2.679164,6.24967,-0.3211045,0.7214587,0.124547,0.0.0.0,10.205.173.28,1,0
2014-11-28 12:58:14.910,150,5,56.17321,10.18888,56.12531,1.32,309.7266,6,5,1417175894,0.5159912,-0.4090424,-0.5898132,41.30533,2.810989,-13.98736,220.2223,217.944,20,-0.4770289,3.686989,-0.04664686,-0.02983732,1.205946,0.01771238,0.3341377,3.97524,1.376403,-1.452524,-0.3945352,0.3718753,0.0.0.0,10.205.173.28,1,0
2014-11-28 12:58:14.943,151,5.033334,56.17321,10.18888,56.12531,1.32,309.7266,6,5,1417175894,1.609909,-1.003876,-0.6615753,41.7272,-1.031677,-13.17757,213.5756,211.2973,20,-0.490717,2.074573,0.2636213,-0.01618513,1.326399,0.01933591,-0.6143652,3.292207,0.4488716,0.3466094,-0.1670514,-0.2423727,0.0.0.0,10.205.173.28,1,0
2014-11-28 12:58:14.976,152,5.066667,56.17321,10.18888,56.12531,1.32,309.7266,6,5,1417175894,1.007309,0.2032166,-0.7728882,42.33472,-4.383469,-12.02076,208.3604,206.0822,20,0.5911557,-1.926739,0.9349434,0.000903015,1.391074,0.03563408,-0.06073402,0.06976277,0.8426822,1.217277,-0.1415127,-0.7684095,0.0.0.0,10.205.173.28,1,0
2014-11-28 12:58:15.010,153,5.1,56.17321,10.18888,56.12531,1.32,309.7266,6,5,1417175894,0.9115143,0.2559357,-0.3391571,43.12787,-6.973465,-9.55838,207.7748,205.4965,20,-0.5411887,-1.206272,-0.3030973,-0.005811882,1.342144,0.06970478,0.38107,-2.0027,0.502955,0.03570136,0.2728649,-0.5467736,0.0.0.0,10.205.173.28,1,0
2014-11-28 12:58:15.043,154,5.133334,56.17321,10.18888,56.12531,1.32,309.7266,6,5,1417175894,1.480942,0.4873352,-0.9731445,43.22913,-6.905777,-9.327026,209.0018,206.7235,20,-1.68561,-0.7619432,-0.9241561,0.006059996,1.299333,0.06099805,-1.131814,-0.8694813,-0.538549,0.1045285,0.3463148,-0.2618067,0.0.0.0,10.205.173.28,1,0
2014-11-28 12:58:15.076,155,5.166667,56.17321,10.18888,56.12531,1.32,309.7266,6,5,1417175894,1.35936,0.2784119,-0.2620697,43.246,-6.617996,-10.00459,209.8323,207.554,20,-1.11935,0.3219019,-1.310008,0.04654862,1.275515,0.01944228,-1.592539,-0.6428947,-1.234198,0.7229497,0.4732375,-0.6029513,0.0.0.0,10.205.173.28,1,0
2014-11-28 12:58:15.110,156,5.2,56.17321,10.18888,56.12531,1.32,309.7266,6,5,1417175894,0.4752655,0.109024,-0.3865204,43.02663,-5.72081,-11.11183,209.4078,207.1295,20,0.4740975,0.2563609,-1.040703,0.07025508,1.280275,-0.03133226,-0.8139161,0.549441,-1.078548,0.4017354,0.2470847,0.02424181,0.0.0.0,10.205.173.28,1,0
2014-11-28 12:58:15.142,157,5.233334,56.17321,10.18888,56.12531,1.32,309.7266,6,5,1417175894,0.3955841,0.4847717,0.008987427,42.99287,-3.452423,-12.33476,209.8341,207.5558,20,-0.2236182,0.05850086,-0.5012106,0.05689245,1.288222,-0.05906294,0.2300411,0.6166837,-0.3650656,-0.3931451,0.5100937,0.2768317,0.0.0.0,10.205.173.28,1,0
2014-11-28 12:58:15.176,158,5.266667,56.17321,10.18888,56.12531,1.32,309.7266,6,5,1417175894,1.105301,0.2148132,0.1255493,43.22914,-2.335175,-12.30171,209.9729,207.6947,20,-0.7029573,0.9880698,-1.020164,0.05917245,1.295635,-0.07333466,-0.4736143,0.3963718,-0.6881559,-0.3971421,0.2584571,0.3846044,0.0.0.0,10.205.173.28,1,0
2014-11-28 12:58:15.210,159,5.3,56.17322,10.18886,55.60809,1.24,304.8047,8,5,1417175895,1.197311,0.2514954,-0.04905701,43.27975,-1.167114,-11.98772,210.1341,207.8558,20,-0.4602158,1.795087,-0.488672,0.0793085,1.362504,-0.1275751,-0.4725068,1.766792,-0.6223469,0.263849,0.1150955,0.1511233,0.0.0.0,10.205.173.28,1,0
2014-11-28 12:58:15.243,160,5.333333,56.17322,10.18886,55.60809,1.24,304.8047,8,5,1417175895,1.156647,0.3141327,-0.1096497,43.70164,0.5426331,-9.988083,211.4079,209.1296,20,-0.8095728,1.586585,-0.01148089,0.09551788,1.423411,-0.1418798,-0.7114507,1.85101,-0.137848,0.1774275,0.1727284,0.03572746,0.0.0.0,10.205.173.28,1,0
2014-11-28 12:58:15.277,161,5.366667,56.17322,10.18886,55.60809,1.24,304.8047,8,5,1417175895,0.6322784,0.2542114,-0.2059784,43.90416,1.185898,-8.36853,211.377,209.0987,20,-0.7011749,1.361876,-0.1745369,0.1223097,1.473278,-0.1459312,-0.8102372,1.271244,-0.07839298,-0.2912346,0.1001764,-0.1402435,0.0.0.0,10.205.173.28,1,0
2014-11-28 12:58:15.310,162,5.4,56.17322,10.18886,55.60809,1.24,304.8047,8,5,1417175895,0.5655365,0.4101715,0.04626465,44.2079,1.659897,-6.550674,211.1296,208.8513,20,-0.6929955,1.50226,-0.4629759,0.1433843,1.52292,-0.1548976,-0.6166996,1.57669,-0.3506411,-0.3869044,0.2199582,0.0132575,0.0.0.0,10.205.173.28,1,0
2014-11-28 12:58:15.343,163,5.433333,56.17322,10.18886,55.60809,1.24,304.8047,8,5,1417175895,0.5726624,0.4250183,-0.07104492,44.44414,1.964615,-4.765877,212.5407,210.2624,20,-0.5907152,1.527673,-0.6368912,0.1678547,1.573665,-0.1720033,-0.8024924,1.439657,-0.6052998,-0.4236858,0.2620863,0.003552036,0.0.0.0,10.205.173.28,1,0
2014-11-28 12:58:15.375,164,5.466667,56.17322,10.18886,55.60809,1.24,304.8047,8,5,1417175895,0.7468414,0.2458496,-0.08985901,44.62978,2.760223,-1.014473,213.9433,211.665,20,-0.1758895,1.413848,-0.4456534,0.1849525,1.624652,-0.1907237,-0.3209089,1.451323,-0.5291688,-0.2336328,0.06862442,-0.1570403,0.0.0.0,10.205.173.28,1,0
2014-11-28 12:58:15.410,165,5.5,56.17322,10.18886,55.60809,1.24,304.8047,8,5,1417175895,0.6043549,0.3480835,-0.1250305,44.62978,3.437363,0.6711807,215.4246,213.1463,20,-0.1158797,1.204439,-0.6410176,0.1922915,1.669489,-0.2045464,-0.1677248,1.252052,-0.5077838,-0.3809742,0.1179982,-0.2441222,0.0.0.0,10.205.173.28,1,0
2014-11-28 12:58:15.442,166,5.533334,56.17322,10.18886,55.60809,1.24,304.8047,8,5,1417175895,0.9893036,0.2352448,-0.08590698,44.52852,4.182205,2.257668,216.9324,214.6541,20,-0.1526963,1.132715,-0.8535362,0.1990774,1.707515,-0.2262686,-0.1015285,1.067481,-0.8054181,-0.3310479,0.1152873,-0.1920075,0.0.0.0,10.205.173.28,1,0
2014-11-28 12:58:15.476,167,5.566667,56.17322,10.18886,55.60809,1.24,304.8047,8,5,1417175895,0.8327942,0.134552,-0.02423096,43.81975,5.604156,5.034035,220.9781,218.6998,20,-0.2049225,1.138575,-0.6972124,0.2094178,1.748003,-0.2501146,-0.20142,1.236315,-0.7045153,-0.003866933,-0.08600077,-0.2434883,0.0.0.0,10.205.173.28,1,0
2014-11-28 12:58:15.510,168,5.6,56.17322,10.18886,55.60809,1.24,304.8047,8,5,1417175895,1.044891,0.3553162,-0.06784058,43.34723,6.382858,6.323067,222.8412,220.5629,20,-0.4285439,0.7192242,-0.7519332,0.2245716,1.784724,-0.2703902,-0.4581479,0.8600088,-0.7625116,-0.1425357,-0.02383657,-0.2451899,0.0.0.0,10.205.173.28,1,0
2014-11-28 12:58:15.543,169,5.633334,56.17322,10.18886,55.60809,1.24,304.8047,8,5,1417175895,1.464401,0.2117462,-0.07556152,42.94221,7.093842,7.579041,224.4307,222.1524,20,-0.2319515,0.8255346,-0.4730634,0.2427938,1.814001,-0.2884173,-0.3338724,0.8113902,-0.5667999,0.221755,0.079258,-0.2601342,0.0.0.0,10.205.173.28,1,0
2014-11-28 12:58:15.576,170,5.666667,56.17322,10.18886,55.60809,1.24,304.8047,8,5,1417175895,1.50795,0.05102539,-0.1566772,42.46971,7.466278,8.603653,225.6142,223.3359,20,-0.2151429,0.137242,0.07420553,0.2552975,1.848944,-0.3001163,-0.1782177,0.4979608,-0.1585387,0.5890743,-0.2012252,-0.4153024,0.0.0.0,10.205.173.28,1,0
2014-11-28 12:58:15.609,171,5.7,56.17322,10.18886,55.60809,1.24,304.8047,8,5,1417175895,1.551559,0.06401062,0.2136993,41.69345,8.109543,10.15708,227.1426,224.8643,20,-0.7434741,-0.6370811,0.6725858,0.2629902,1.857123,-0.2958767,-0.4041425,-0.0456698,0.2564048,0.6031482,-0.2552017,-0.2502145,0.0.0.0,10.205.173.28,1,0
2014-11-28 12:58:15.643,172,5.733334,56.17322,10.18886,55.60809,1.24,304.8047,8,5,1417175895,1.062103,0.5992737,0.2935791,41.77782,7.889465,10.57023,226.8447,224.5664,20,-0.1243688,-1.3422,1.13281,0.2792856,1.844135,-0.2709576,-0.6594031,-0.8949394,0.8833569,0.4718527,0.1442263,-0.1151097,0.0.0.0,10.205.173.28,1,0
2014-11-28 12:58:15.676,173,5.766667,56.17322,10.18886,55.60809,1.24,304.8047,8,5,1417175895,0.7771606,0.9414215,0.1018524,41.82845,7.229263,10.32234,225.0135,222.7352,20,0.4465415,-1.744365,1.347826,0.2779484,1.803288,-0.2344698,-0.02616393,-1.507082,1.255828,0.01080614,0.4069701,0.1330186,0.0.0.0,10.205.173.28,1,0
2014-11-28 12:58:15.710,174,5.8,56.17322,10.18886,55.60809,1.24,304.8047,8,5,1417175895,1.122818,0.8610077,0.1970825,42.43596,4.859314,8.240067,218.663,216.3847,20,0.871079,-1.554042,1.422179,0.2585057,1.745454,-0.1941854,0.570618,-1.722464,1.378101,-0.02415388,0.7269394,-0.008837737,0.0.0.0,10.205.173.28,1,0
2014-11-28 12:58:15.744,175,5.833333,56.17322,10.18886,55.60809,1.24,304.8047,8,5,1417175895,1.20816,0.8274841,-0.1026917,43.34723,3.403488,6.884941,216.6397,214.3615,20,1.382079,-1.340144,1.235189,0.2259365,1.68959,-0.1531614,0.9854963,-1.502681,1.434314,0.2145638,0.5825899,-0.008027159,0.0.0.0,10.205.173.28,1,0
2014-11-28 12:58:15.776,176,5.866667,56.17322,10.18886,55.60809,1.24,304.8047,8,5,1417175895,1.273361,0.7157135,0.034729,43.73535,1.761459,5.248871,214.6178,212.3395,20,1.374085,-1.522226,0.8386148,0.1806497,1.640637,-0.116868,1.503438,-1.195257,1.064749,0.2741961,0.7717188,-0.1884792,0.0.0.0,10.205.173.28,1,0
2014-11-28 12:58:15.810,177,5.9,56.17322,10.18886,55.60809,1.24,304.8047,8,5,1417175895,1.046478,0.2911377,-0.1519775,44.29225,0.5595551,3.381432,213.397,211.1187,20,0.79978,-1.846989,0.8912476,0.1353111,1.589418,-0.0912448,1.167009,-1.74635,0.7642866,0.2271567,0.5612561,0.01041782,0.0.0.0,10.205.173.28,1,0
2014-11-28 12:58:15.842,178,5.933334,56.17322,10.18886,55.60809,1.24,304.8047,8,5,1417175895,0.8192596,0.1259003,-0.123642,44.89975,-1.742676,-0.188179,212.3203,210.042,20,0.02474769,-2.011518,1.02401,0.1096795,1.528677,-0.0628218,0.5214947,-1.839673,1.019711,0.04933606,0.2283572,-0.1099536,0.0.0.0,10.205.173.28,1,0
2014-11-28 12:58:15.876,179,5.966667,56.17322,10.18886,55.60809,1.24,304.8047,8,5,1417175895,0.5439453,0.08100891,0.08883667,44.95038,-2.876862,-2.121719,210.3754,208.0971,20,-0.6477348,-2.133003,0.8709197,0.1101544,1.465579,-0.02998544,-0.2154808,-2.07696,0.9902189,-0.2636302,0.05592604,0.01188248,0.0.0.0,10.205.173.28,1,0
2014-11-28 12:58:15.910,180,6,56.17322,10.18886,55.60809,1.24,304.8047,8,5,1417175895,0.2121429,0.09916687,-0.1088715,44.91663,-3.757156,-4.534515,207.8248,205.5465,20,-1.010884,-1.972684,0.5416196,0.1588671,1.351308,0.006086429,-1.092529,-2.166035,0.6362293,-0.7266929,0.07568173,0.1755353,0.0.0.0,10.205.173.28,1,0
2014-11-28 12:58:15.943,181,6.033334,56.17322,10.18886,55.60809,1.24,304.8047,8,5,1417175895,0.06240845,0.1300354,-0.07637024,44.34288,-5.28067,-9.227882,201.4894,199.2111,20,-0.8256348,-1.333116,0.2926122,0.1929256,1.29429,0.01298454,-0.88493,-1.475235,0.3383081,-0.8010453,0.1835927,0.1482327,0.0.0.0,10.205.173.28,1,0
2014-11-28 12:58:15.976,182,6.066667,56.17322,10.18886,55.60809,1.24,304.8047,8,5,1417175895,-0.00894165,0.1056519,-0.1724243,44.07286,-5.923935,-11.37626,198.9179,196.6396,20,-0.7962492,-0.4315841,-0.07143131,0.2216099,1.257148,0.01171154,-0.8776246,-0.8337952,0.08642492,-0.9408951,0.1269456,0.2044909,0.0.0.0,10.205.173.28,1,0
2014-11-28 12:58:16.009,183,6.1,56.17322,10.18886,55.60809,1.24,304.8047,8,5,1417175895,0.3698578,0.1178284,-0.5685272,43.68472,-6.110138,-13.01233,196.3652,194.0869,20,-0.659567,0.6810204,-0.4342231,0.2446511,1.252921,-0.0006658533,-0.756987,0.3571109,-0.2932141,-0.7382315,0.1070002,-0.1290099,0.0.0.0,10.205.173.28,1,0
2014-11-28 12:58:16.044,184,6.133334,56.17322,10.18886,55.60809,1.24,304.8047,8,5,1417175895,1.387054,-0.07865906,-0.6594086,43.7016,-5.923935,-14.02042,194.9279,192.6496,20,-0.3742492,0.4875105,-0.6211573,0.2596975,1.276913,-0.02303173,-0.5884871,0.7619947,-0.644259,-0.1300291,0.009837741,-0.5125906,0.0.0.0,10.205.173.28,1,0
2014-11-28 12:58:16.076,185,6.166667,56.17322,10.18886,55.60809,1.24,304.8047,8,5,1417175895,2.024368,-0.009307861,-0.5022888,43.53285,-4.637405,-14.7806,191.823,189.5447,20,-0.7172423,-0.8368819,-0.1538718,0.268099,1.278145,-0.04430565,-0.5880755,-0.7513465,-0.4217426,0.7520144,-0.1623484,-0.2829888,0.0.0.0,10.205.173.28,1,0
2014-11-28 12:58:16.110,186,6.2,56.17322,10.18886,55.60809,1.24,304.8047,8,5,1417175895,0.9857178,0.4947662,-0.9543152,43.44849,-3.977203,-14.89629,192.0244,189.7461,20,-0.5832706,-1.485309,0.7120845,0.2897928,1.252549,-0.04352996,-0.575058,-1.040289,0.7522109,1.087705,0.4834766,-0.5038459,0.0.0.0,10.205.173.28,1,0
2014-11-28 12:58:16.143,187,6.233334,56.17322,10.18886,55.60809,1.24,304.8047,8,5,1417175895,0.5562592,0.02729797,-0.9642029,43.38098,-3.570908,-15.45817,183.2399,180.9616,20,-0.4751926,-0.2585333,0.2583698,0.3133856,1.209919,-0.03140138,-0.525193,-0.9963573,0.3988107,-0.6608036,0.05357998,-0.403762,0.0.0.0,10.205.173.28,1,0
2014-11-28 12:58:16.176,188,6.266667,56.17322,10.18886,55.60809,1.24,304.8047,8,5,1417175895,1.577087,0.3441772,-0.6623688,42.87473,-3.401627,-16.21838,180.8291,178.5508,20,0.3441291,0.2265431,0.3149468,0.3251755,1.204173,-0.02786153,0.07089024,-0.2429785,0.1890169,0.165101,0.1819962,-0.6191217,0.0.0.0,10.205.173.28,1,0
2014-11-28 12:58:16.210,189,6.3,56.17323,10.18883,56.66064,1.23,297.4219,8,5,1417175896,0.9723511,0.9223633,-0.1158905,42.80722,-4.281906,-16.97855,179.7737,177.4955,20,0.4887228,0.891111,0.5165795,0.3181383,1.239961,-0.01006315,0.603536,1.999438,0.6030192,0.6464855,0.5639574,0.3025697,0.0.0.0,10.205.173.28,1,0
2014-11-28 12:58:16.243,190,6.333333,56.17323,10.18883,56.66064,1.23,297.4219,8,5,1417175896,0.4808655,0.6789398,-0.4692688,42.80722,-4.992905,-17.07771,177.2059,174.9276,20,-0.7692783,0.1611886,-0.1434655,0.3206813,1.255756,0.002734997,-0.5767989,0.0980315,0.1707407,-0.2342885,0.7832221,0.1680082,0.0.0.0,10.205.173.28,1,0
2014-11-28 12:58:16.276,191,6.366667,56.17323,10.18883,56.66064,1.23,297.4219,8,5,1417175896,1.083237,0.1877289,0.1534576,42.75661,-5.280685,-16.82982,175.8783,173.6,20,-0.05030099,1.194035,-1.135737,0.3445064,1.258706,-0.03159222,-0.5685439,0.2167365,-1.147038,-0.1316693,0.3887927,0.01230951,0.0.0.0,10.205.173.28,1,0
2014-11-28 12:58:16.310,192,6.400001,56.17323,10.18883,56.66064,1.23,297.4219,8,5,1417175896,1.125473,0.3296967,0.205368,43.26204,-4.271149,-14.72883,191.2792,189.0009,20,-0.06054271,2.57203,-0.6110953,0.3392732,1.293046,-0.06792375,-0.06179229,1.776402,-0.9615448,0.1758426,0.1265407,0.526643,0.0.0.0,10.205.173.28,1,0
2014-11-28 12:58:16.343,193,6.433334,56.17323,10.18883,56.66064,1.23,297.4219,8,5,1417175896,0.845932,0.4462585,-0.05615234,43.66704,-3.59404,-13.80344,192.9994,190.7211,20,-0.4356892,2.03352,-0.4207893,0.3375067,1.370321,-0.08878127,-0.1799671,2.549281,-0.4101994,0.01201618,0.4461864,0.1273363,0.0.0.0,10.205.173.28,1,0
2014-11-28 12:58:16.378,194,6.466667,56.17323,10.18883,56.66064,1.23,297.4219,8,5,1417175896,0.6674042,0.3109741,-0.1438599,44.1564,-2.290573,-12.43185,193.6886,191.4103,20,-0.1270986,1.750964,-0.4084509,0.3483117,1.438767,-0.1037363,-0.5082353,1.822371,-0.4430927,-0.3089964,0.2409321,0.006349999,0.0.0.0,10.205.173.28,1,0
2014-11-28 12:58:16.410,195,6.5,56.17323,10.18883,56.66064,1.23,297.4219,8,5,1417175896,0.5265198,0.3925476,-0.01948547,45.32076,-0.4115601,-8.250999,195.9657,193.6874,20,0.5115906,2.081012,-0.1892607,0.353685,1.496053,-0.1177615,0.08923678,2.015283,-0.2721221,-0.3279022,0.175464,-0.05516196,0.0.0.0,10.205.173.28,1,0
2014-11-28 12:58:16.443,196,6.533334,56.17323,10.18883,56.66064,1.23,297.4219,8,5,1417175896,0.4268951,0.3892059,0.09210205,45.43889,-0.259201,-5.854866,197.9473,195.669,20,0.5490743,2.021931,-0.4026098,0.3402042,1.561129,-0.1235984,0.5313141,2.028408,-0.1614808,-0.5395052,0.2659526,0.07166661,0.0.0.0,10.205.173.28,1,0
2014-11-28 12:58:16.476,197,6.566667,56.17323,10.18883,56.66064,1.23,297.4219,8,5,1417175896,0.7498779,0.2654266,-0.1334534,45.47264,0.1470642,-3.541367,200.0011,197.7228,20,0.7031115,2.028239,-0.522354,0.3238883,1.62315,-0.135435,0.5244143,1.966811,-0.5106051,-0.4458297,0.2224768,-0.07496738,0.0.0.0,10.205.173.28,1,0
2014-11-28 12:58:16.510,198,6.6,56.17323,10.18883,56.66064,1.23,297.4219,8,5,1417175896,0.5234375,0.1248932,0.05348206,45.50638,0.587204,-0.9634552,203.0821,200.8038,20,0.7558035,2.024552,-0.6263643,0.3045151,1.685128,-0.1534873,0.7075379,2.101419,-0.4968251,-0.1636767,0.04172529,-0.2364141,0.0.0.0,10.205.173.28,1,0
2014-11-28 12:58:16.543,199,6.633334,56.17323,10.18883,56.66064,1.23,297.4219,8,5,1417175896,0.53479,0.29039,0.0953064,44.73013,1.602875,3.531364,210.4081,208.1298,20,-0.0739155,1.297196,-1.230367,0.2863083,1.747422,-0.1760985,0.4265446,1.867225,-0.8769653,-0.44578,-0.05029657,-0.1195092,0.0.0.0,10.205.173.28,1,0
2014-11-28 12:58:16.576,200,6.666667,56.17323,10.18883,56.66064,1.23,297.4219,8,5,1417175896,1.08403,0.1516571,-0.09992981,44.4939,2.753983,5.415215,213.3639,211.0856,20,0.1747452,0.8896228,-0.7246011,0.2939853,1.793176,-0.2113624,-0.09515267,1.032142,-1.067093,0.1628468,0.144822,-0.3787141,0.0.0.0,10.205.173.28,1,0
2014-11-28 12:58:16.610,201,6.7,56.17323,10.18883,56.66064,1.23,297.4219,8,5,1417175896,1.383163,0.2785492,-0.1119537,44.17328,3.82045,7.084251,216.9435,214.6652,20,0.2087948,0.8317339,-0.4378439,0.297155,1.822879,-0.2353567,0.08816864,0.8559408,-0.600727,0.1473069,-0.1055654,-0.3081885,0.0.0.0,10.205.173.28,1,0
2014-11-28 12:58:16.643,202,6.733334,56.17323,10.18883,56.66064,1.23,297.4219,8,5,1417175896,1.406418,0.1712341,-0.09117126,42.84016,5.631775,9.579544,222.2643,219.986,20,-0.1863054,0.1437652,-0.07090507,0.2986907,1.859299,-0.2548368,-0.1589947,0.3270127,-0.1551267,0.5527738,-0.117917,-0.2910906,0.0.0.0,10.205.173.28,1,0
2014-11-28 12:58:16.676,203,6.766667,56.17323,10.18883,56.66064,1.23,297.4219,8,5,1417175896,1.449158,0.268631,0.05883789,42.70517,6.139603,10.17445,223.5166,221.2383,20,-0.51489,-0.6151689,0.4473717,0.3076592,1.86262,-0.2506314,-0.4182828,-0.2502118,0.2188194,0.52136,0.02061534,-0.219873,0.0.0.0,10.205.173.28,1,0
2014-11-28 12:58:16.710,204,6.8,56.17323,10.18883,56.66064,1.23,297.4219,8,5,1417175896,0.9449005,0.5225067,0.1065979,42.63766,6.241165,10.40579,223.8091,221.5308,20,0.1174688,-1.197929,1.042514,0.3171333,1.840394,-0.2269185,-0.283749,-1.016111,0.9192864,0.2418314,0.2864832,-0.2253515,0.0.0.0,10.205.173.28,1,0
2014-11-28 12:58:16.747,205,6.833333,56.17323,10.18883,56.66064,1.23,297.4219,8,5,1417175896,0.8179321,0.8034973,0.07894897,42.77264,5.936462,10.37274,222.6206,220.3423,20,0.4219278,-1.73233,1.187497,0.3023407,1.795073,-0.193808,0.3064197,-1.559087,1.207076,-0.2009037,0.3639826,0.01758728,0.0.0.0,10.205.173.28,1,0
2014-11-28 12:58:16.777,206,6.866667,56.17323,10.18883,56.66064,1.23,297.4219,8,5,1417175896,1.146042,0.9331665,0.1819305,43.65016,4.175934,8.621086,217.9263,215.648,20,0.81742,-1.423101,1.200133,0.275808,1.738006,-0.1592252,0.8218399,-1.520565,1.207395,0.172462,0.7746132,0.01760413,0.0.0.0,10.205.173.28,1,0
2014-11-28 12:58:16.810,207,6.900001,56.17323,10.18883,56.66064,1.23,297.4219,8,5,1417175896,1.327087,0.9006805,-0.1579437,44.20702,2.838608,7.348656,216.4793,214.201,20,1.202857,-1.367175,1.161757,0.243465,1.690869,-0.1244646,0.9591114,-1.280656,1.232648,0.3187436,0.7216664,-0.1148141,0.0.0.0,10.205.173.28,1,0
2014-11-28 12:58:16.843,208,6.933334,56.17323,10.18883,56.66064,1.23,297.4219,8,5,1417175896,1.285843,0.763916,-0.06459045,44.6964,1.704422,5.74572,214.3978,212.1195,20,1.769755,-1.567657,0.8061988,0.1963061,1.643646,-0.09428239,1.671536,-1.302512,0.9460467,0.4046344,0.8415872,-0.2565895,0.0.0.0,10.205.173.28,1,0
2014-11-28 12:58:16.876,209,6.966667,56.17323,10.18883,56.66064,1.23,297.4219,8,5,1417175896,1.07373,0.2751007,-0.1186523,44.93266,-0.8009338,1.812752,211.8655,209.5872,20,1.133568,-2.080642,0.8266553,0.1442984,1.582469,-0.07245052,1.349911,-2.051652,0.7111031,0.2010403,0.4281164,-0.07566776,0.0.0.0,10.205.173.28,1,0
2014-11-28 12:58:16.910,210,7,56.17323,10.18883,56.66064,1.23,297.4219,8,5,1417175896,0.9073486,0.1122131,-0.07128906,45.10139,-1.748917,0.06109619,211.544,209.2657,20,0.2976834,-2.40134,1.100007,0.1154791,1.514529,-0.04243885,0.5919319,-2.154118,1.078506,0.02172288,0.1150904,-0.03023894,0.0.0.0,10.205.173.28,1,0
2014-11-28 12:58:16.943,211,7.033334,56.17323,10.18883,56.66064,1.23,297.4219,8,5,1417175896,0.3535614,0.08132935,0.0269165,45.10139,-2.900024,-2.186317,210.5549,208.2766,20,-0.2854938,-2.393258,0.7013696,0.115113,1.43692,-0.009669398,-0.126524,-2.465191,0.8894112,-0.3293692,0.05226618,0.05978587,0.0.0.0,10.205.173.28,1,0
2014-11-28 12:58:16.976,212,7.066667,56.17323,10.18883,56.66064,1.23,297.4219,8,5,1417175896,0.1517334,0.100296,-0.1884308,44.7639,-5.032974,-6.912483,206.1802,203.9019,20,-0.624776,-1.883894,0.2708469,0.1328142,1.363984,0.005886873,-0.6699581,-2.091114,0.3808581,-0.7202354,0.09318237,0.2386933,0.0.0.0,10.205.173.28,1,0
2014-11-28 12:58:17.010,213,7.1,56.17323,10.18883,56.66064,1.23,297.4219,8,5,1417175896,0.1258698,0.1613312,-0.1950989,44.5614,-5.676254,-8.928535,204.6991,202.4209,20,-0.3151899,-1.077431,0.04236397,0.1514025,1.311375,0.009004222,-0.388092,-1.286692,0.1307837,-0.8313218,0.1419692,0.06122902,0.0.0.0,10.205.173.28,1,0
2014-11-28 12:58:17.043,214,7.133334,56.17323,10.18883,56.66064,1.23,297.4219,8,5,1417175896,0.1494293,0.07342529,-0.2149506,44.12265,-6.150238,-10.9446,202.6723,200.394,20,-0.4661903,-0.1805439,-0.2357081,0.1629277,1.283365,0.005093367,-0.4301068,-0.5154082,-0.132702,-0.8137295,0.1293152,0.1345302,0.0.0.0,10.205.173.28,1,0
2014-11-28 12:58:17.076,215,7.166667,56.17323,10.18883,56.66064,1.23,297.4219,8,5,1417175896,0.5392303,-0.021698,-0.6813202,43.7514,-5.980942,-12.29965,201.4104,199.1322,20,-0.5713159,0.8057692,-0.6894919,0.1810974,1.287783,-0.01767367,-0.6504235,0.4564418,-0.6241331,-0.6448828,0.00771788,-0.08358609,0.0.0.0,10.205.173.28,1,0
2014-11-28 12:58:17.110,216,7.2,56.17323,10.18883,56.66064,1.23,297.4219,8,5,1417175896,1.287506,-0.1909485,-0.5477753,43.73454,-4.948334,-12.87803,200.3069,198.0286,20,-0.09104869,-0.1116924,-0.1547305,0.1936608,1.310006,-0.04266366,-0.4154723,0.4974307,-0.5318554,-0.0695705,-0.09779599,-0.9089397,0.0.0.0,10.205.173.28,1,0
2014-11-28 12:58:17.143,217,7.233334,56.17323,10.18883,56.66064,1.23,297.4219,8,5,1417175896,1.781235,0.1022491,-0.4758148,43.5658,-4.338913,-13.10938,199.5911,197.3129,20,-0.5563117,-1.039604,0.7848256,0.2000351,1.308567,-0.04997086,-0.5828142,-0.3677997,0.1768473,0.5446075,-0.2277302,0.02531406,0.0.0.0,10.205.173.28,1,0
2014-11-28 12:58:17.176,218,7.266667,56.17323,10.18883,56.66064,1.23,297.4219,8,5,1417175896,0.6604919,0.6335144,-0.8272858,43.44766,-3.915695,-13.29115,199.2408,196.9625,20,-0.5808056,-0.8071468,0.4432254,0.2263263,1.281759,-0.03490641,-0.3962838,-0.7650055,0.9339513,0.8796203,0.7546667,-0.6162209,0.0.0.0,10.205.173.28,1,0
2014-11-28 12:58:17.210,219,7.3,56.17323,10.1888,56.87463,1.24,291.7969,8,5,1417175897,0.9370728,0.3091431,-0.94133,43.26204,-3.492508,-14.03479,196.9385,194.6602,20,0.07568251,-0.5451648,-0.3951106,0.2486931,1.260596,-0.02513888,-0.7612277,-0.5040711,-0.001244724,-0.9309449,0.2522686,-0.5954205,0.0.0.0,10.205.173.28,1,0
2014-11-28 12:58:17.243,220,7.333333,56.17323,10.1888,56.87463,1.24,291.7969,8,5,1417175897,1.638031,0.9113922,-0.06404114,42.99203,-3.492508,-14.72884,195.7476,193.4693,20,0.9264506,0.9632654,0.05055425,0.2511231,1.246389,-0.03683138,0.2502382,-0.7577804,-0.395851,0.5742873,0.4555323,-0.261807,0.0.0.0,10.205.173.28,1,0
2014-11-28 12:58:17.276,221,7.366667,56.17323,10.1888,56.87463,1.24,291.7969,8,5,1417175897,0.9628296,0.6312256,0.06214905,43.11017,-3.881851,-14.94367,196.545,194.2668,20,0.008775116,0.1836444,0.08265413,0.2305265,1.261542,-0.02940259,1.112355,0.5518477,0.2735436,0.6858818,0.8819939,0.2401753,0.0.0.0,10.205.173.28,1,0
2014-11-28 12:58:17.310,222,7.400001,56.17323,10.1888,56.87463,1.24,291.7969,8,5,1417175897,0.675293,0.3266754,-0.3393097,43.24516,-3.949585,-15.17501,196.2234,193.9451,20,-0.6952832,-0.1075336,-0.7003544,0.22589,1.268298,-0.02335421,-0.4696804,0.1580476,-0.1042182,-0.2569015,0.3408905,0.2038608,0.0.0.0,10.205.173.28,1,0
2014-11-28 12:58:17.343,223,7.433334,56.17323,10.1888,56.87463,1.24,291.7969,8,5,1417175897,1.235916,0.3322601,0.2322083,43.51517,-3.746445,-14.81147,196.6604,194.3821,20,-0.08141416,1.384758,-1.165789,0.240584,1.268392,-0.04923109,-0.6734043,0.22798,-0.9816132,-0.1365567,0.2484878,0.2223063,0.0.0.0,10.205.173.28,1,0
2014-11-28 12:58:17.376,224,7.466667,56.17323,10.1888,56.87463,1.24,291.7969,8,5,1417175897,1.045975,0.6206665,0.04837036,43.59956,-3.424805,-14.10089,198.15,195.8717,20,-0.381798,2.354849,-0.6513213,0.2383233,1.306836,-0.08521769,-0.0921372,1.846006,-0.9161863,0.274055,0.2471455,0.4921673,0.0.0.0,10.205.173.28,1,0
2014-11-28 12:58:17.410,225,7.5,56.17323,10.1888,56.87463,1.24,291.7969,8,5,1417175897,0.7532196,0.3331451,-0.154007,43.86955,-2.544525,-12.87804,198.0931,195.8148,20,-0.4114778,1.960322,-0.4660849,0.2510253,1.432344,-0.1218442,-0.4301204,2.2623,-0.5412697,-0.2298682,0.2116022,-0.01701937,0.0.0.0,10.205.173.28,1,0
2014-11-28 12:58:17.443,226,7.533334,56.17323,10.1888,56.87463,1.24,291.7969,8,5,1417175897,0.5554047,0.2514191,-0.2164459,44.17329,-1.630402,-11.09333,198.3656,196.0873,20,0.0558124,1.876513,-0.2900324,0.2611751,1.493707,-0.1362495,-0.1964765,1.797819,-0.3297856,-0.3815888,0.1283929,-0.1776989,0.0.0.0,10.205.173.28,1,0
2014-11-28 12:58:17.476,227,7.566667,56.17323,10.1888,56.87463,1.24,291.7969,8,5,1417175897,0.5087738,0.3773499,0.1386108,44.59515,-0.0222168,-6.548927,201.0763,198.798,20,0.2203316,1.810876,-0.4330177,0.2565096,1.554062,-0.1458259,0.2701806,1.9065,-0.356899,-0.5055441,0.1821287,-0.04482989,0.0.0.0,10.205.173.28,1,0
2014-11-28 12:58:17.511,228,7.6,56.17323,10.1888,56.87463,1.24,291.7969,8,5,1417175897,0.6647644,0.3246307,0.01295471,44.86516,0.6549225,-4.136261,203.1591,200.8808,20,0.06449404,1.944545,-0.4993973,0.2542374,1.613576,-0.1606204,-0.04589754,1.963086,-0.5261294,-0.415287,0.218411,0.07463591,0.0.0.0,10.205.173.28,1,0
2014-11-28 12:58:17.543,229,7.633334,56.17323,10.1888,56.87463,1.24,291.7969,8,5,1417175897,0.6700897,0.2199097,-0.1927795,44.78079,1.247421,-1.740135,206.0993,203.821,20,0.4266728,1.952952,-0.2540243,0.2511633,1.67397,-0.173557,0.2918427,1.894746,-0.2464216,-0.1893337,0.0168424,-0.2825194,0.0.0.0,10.205.173.28,1,0
2014-11-28 12:58:17.577,230,7.666667,56.17323,10.1888,56.87463,1.24,291.7969,8,5,1417175897,0.5934906,0.2293091,0.04972839,44.47705,2.093826,2.325043,210.5215,208.2432,20,0.4120512,1.724748,-0.6809466,0.2399835,1.733879,-0.1862488,0.4202155,1.864282,-0.5191877,-0.3683178,0.02040776,-0.3404157,0.0.0.0,10.205.173.28,1,0
2014-11-28 12:58:17.610,231,7.7,56.17323,10.1888,56.87463,1.24,291.7969,8,5,1417175897,0.6279297,0.2639923,0.0736084,44.3083,2.906387,4.605492,213.5815,211.3032,20,-0.3368396,1.464611,-1.237142,0.2396046,1.789041,-0.2130963,-0.180023,1.675883,-1.098942,-0.4149964,0.0587612,-0.09788001,0.0.0.0,10.205.173.28,1,0
2014-11-28 12:58:17.643,232,7.733334,56.17323,10.1888,56.87463,1.24,291.7969,8,5,1417175897,0.9799194,0.4135895,-0.1079407,44.22391,3.701981,6.605026,217.0828,214.8045,20,-0.3625433,0.8041316,-0.7976823,0.2606843,1.833043,-0.2449758,-0.4350811,0.8936034,-0.9428528,0.1096875,0.1213435,-0.2816928,0.0.0.0,10.205.173.28,1,0
2014-11-28 12:58:17.675,233,7.766667,56.17323,10.1888,56.87463,1.24,291.7969,8,5,1417175897,1.343918,0.3002319,-0.08128357,43.81891,4.548401,8.026184,219.4863,217.208,20,0.1985805,0.9213105,-0.5265413,0.2756226,1.862957,-0.2652903,-0.03205939,0.8537135,-0.6358886,0.1167098,0.1439385,-0.4880137,0.0.0.0,10.205.173.28,1,0
2014-11-28 12:58:17.710,234,7.8,56.17323,10.1888,56.87463,1.24,291.7969,8,5,1417175897,1.405121,0.2599335,-0.1755524,42.65456,6.088852,10.85197,224.8818,222.6035,20,0.1940462,0.6680329,-0.1067483,0.2737864,1.891048,-0.2792281,0.2142821,0.8319094,-0.2042822,0.5052239,-0.05738249,-0.3746952,0.0.0.0,10.205.173.28,1,0
2014-11-28 12:58:17.743,235,7.833334,56.17323,10.1888,56.87463,1.24,291.7969,8,5,1417175897,1.451401,0.1958923,0.01832581,42.0302,6.545929,11.43036,226.4679,224.1896,20,-0.01848846,0.1300057,0.1352729,0.2713837,1.906968,-0.2818335,0.01177558,0.2816556,0.02302546,0.4983409,-0.01818381,-0.4924134,0.0.0.0,10.205.173.28,1,0
2014-11-28 12:58:17.776,236,7.866667,56.17323,10.1888,56.87463,1.24,291.7969,8,5,1417175897,1.157013,0.5723419,0.181778,41.60831,6.698273,12.20704,227.8051,225.5268,20,-0.3090566,-0.7351955,0.8514387,0.274388,1.904827,-0.2708271,-0.4321196,-0.4494461,0.5815302,0.6564029,0.02127463,-0.09100376,0.0.0.0,10.205.173.28,1,0
2014-11-28 12:58:17.810,237,7.900001,56.17323,10.1888,56.87463,1.24,291.7969,8,5,1417175897,0.8956451,0.8114929,0.1182709,41.96269,6.038086,11.89305,225.8328,223.5545,20,0.5923938,-1.928829,1.106485,0.2604738,1.856586,-0.2284151,0.1547242,-1.559682,1.155233,-0.2015328,0.3721071,0.1529275,0.0.0.0,10.205.173.28,1,0
2014-11-28 12:58:17.843,238,7.933334,56.17323,10.1888,56.87463,1.24,291.7969,8,5,1417175897,1.244095,0.8415985,0.2498932,42.57018,5.191681,10.86849,223.1741,220.8958,20,0.8088683,-1.541905,1.076113,0.2365834,1.792571,-0.1970706,0.7857314,-1.853952,1.129894,0.1583023,0.729175,-0.08362403,0.0.0.0,10.205.173.28,1,0
2014-11-28 12:58:17.876,239,7.966667,56.17323,10.1888,56.87463,1.24,291.7969,8,5,1417175897,1.274765,0.8483276,-0.1055298,43.51517,4.14212,9.480385,220.8465,218.5683,20,1.135543,-1.432479,0.9483631,0.2051281,1.735281,-0.167185,0.7209839,-1.482286,1.07955,0.2973782,0.642751,-0.05899818,0.0.0.0,10.205.173.28,1,0
2014-11-28 12:58:17.910,240,8,56.17323,10.1888,56.87463,1.24,291.7969,8,5,1417175897,1.243576,0.8538208,-0.1259766,44.1564,2.991028,7.497375,218.6757,216.3974,20,2.092163,-1.814778,0.7758004,0.1660272,1.684393,-0.1410222,1.589307,-1.166192,0.9275063,0.3286252,0.7821285,-0.3779286,0.0.0.0,10.205.173.28,1,0
2014-11-28 12:58:17.943,241,8.033334,56.17323,10.1888,56.87463,1.24,291.7969,8,5,1417175897,0.9884033,0.4496765,-0.04667664,45.01703,0.8411865,3.580933,214.7582,212.4799,20,1.327488,-1.767014,0.8683154,0.1008195,1.622821,-0.120853,1.830264,-2.096956,0.7203181,0.1816564,0.647126,-0.05191185,0.0.0.0,10.205.173.28,1,0
2014-11-28 12:58:17.977,242,8.066668,56.17323,10.1888,56.87463,1.24,291.7969,8,5,1417175897,0.8110657,0.2206573,-0.05929565,45.1689,-0.08985901,1.383095,214.9258,212.6475,20,0.6417041,-1.932385,0.9830458,0.05663379,1.559172,-0.09466953,1.093106,-1.679489,0.9622138,-0.08705343,0.2338715,-0.05320136,0.0.0.0,10.205.173.28,1,0
2014-11-28 12:58:18.010,243,8.1,56.17323,10.1888,56.87463,1.24,291.7969,8,5,1417175897,0.4328308,0.05592346,0.01013184,44.94952,-0.9870453,-0.4511871,214.9217,212.6434,20,-0.1270738,-2.019006,0.6436621,0.03633427,1.498257,-0.06282175,0.3819065,-1.904763,0.9154004,-0.366939,0.04506869,0.02460337,0.0.0.0,10.205.173.28,1,0
2014-11-28 12:58:18.043,244,8.133334,56.17323,10.1888,56.87463,1.24,291.7969,8,5,1417175897,0.2310638,0.0164032,-0.02713013,44.66266,-2.392105,-4.598984,211.6537,209.3754,20,-0.4591689,-1.85435,0.3578162,0.04072442,1.435031,-0.04137859,-0.4279829,-2.192815,0.4596546,-0.6557977,-0.005706996,0.1726016,0.0.0.0,10.205.173.28,1,0
2014-11-28 12:58:18.076,245,8.166667,56.17323,10.1888,56.87463,1.24,291.7969,8,5,1417175897,0.0630188,0.0632782,-0.08583069,44.56142,-3.238495,-6.284538,209.6155,207.3372,20,-0.5060096,-1.105425,0.1856354,0.05873788,1.374375,-0.03262112,-0.5165825,-1.574311,0.3609317,-0.8301488,0.01847109,0.143757,0.0.0.0,10.205.173.28,1,0
2014-11-28 12:58:18.110,246,8.200001,56.17323,10.1888,56.87463,1.24,291.7969,8,5,1417175897,0.08227539,0.1062164,-0.1600189,44.32518,-3.712494,-7.870956,208.5515,206.2732,20,-0.6584698,-0.2973784,-0.1264962,0.07700295,1.337877,-0.0295422,-0.5556581,-0.8835296,0.09375534,-0.9095535,0.0337403,0.1448872,0.0.0.0,10.205.173.28,1,0
2014-11-28 12:58:18.143,247,8.233334,56.17323,10.1888,56.87463,1.24,291.7969,8,5,1417175897,0.4755707,0.09191895,-0.5894928,44.02142,-3.780212,-9.52346,206.8396,204.5613,20,-0.6086761,0.6148259,-0.4725167,0.1086679,1.336659,-0.04767139,-0.662577,0.5665057,-0.4159352,-0.6370151,0.07705675,-0.1978101,0.0.0.0,10.205.173.28,1,0
2014-11-28 12:58:18.176,248,8.266667,56.17323,10.1888,56.87463,1.24,291.7969,8,5,1417175897,1.247284,0.0222168,-0.658905,43.49831,-3.35701,-10.7959,204.0471,201.7688,20,0.1009623,0.02014442,-0.3369402,0.1213839,1.351617,-0.06453566,-0.222054,0.1262597,-0.3612864,0.08691458,0.03453866,-0.7785225,0.0.0.0,10.205.173.28,1,0
2014-11-28 12:58:18.210,249,8.3,56.17323,10.1888,56.87463,1.24,291.7969,8,5,1417175897,1.836395,-0.05352783,-0.3940735,43.48141,-2.866089,-11.07681,203.2025,200.9242,20,-0.6876729,-0.6303574,0.4310531,0.1268158,1.344752,-0.07270879,-0.7206509,-0.6864214,0.04208083,0.8644095,-0.1261726,-0.1705417,0.0.0.0,10.205.173.28,1,0
2014-11-28 12:58:18.243,250,8.333334,56.17324,10.18877,57.48157,1.29,286.875,6,5,1417175898,0.9260406,0.5075226,-1.054779,43.58266,-2.561371,-11.24206,203.0753,200.797,20,-0.4826058,-1.003444,0.4725263,0.1514187,1.326695,-0.06076524,-0.6168625,-0.7173484,0.6444045,0.507205,0.6352103,-0.7288698,0.0.0.0,10.205.173.28,1,0
2014-11-28 12:58:18.277,251,8.366667,56.17324,10.18877,57.48157,1.29,286.875,6,5,1417175898,0.8590851,0.3071594,-1.184723,43.73454,-2.510559,-12.28313,201.1292,198.8509,20,-0.2928215,-0.346792,-0.2753815,0.1686759,1.301755,-0.05750761,-0.4903842,-0.4061741,-0.1454106,-0.7670438,0.1493722,-0.703123,0.0.0.0,10.205.173.28,1,0
2014-11-28 12:58:18.310,252,8.400001,56.17324,10.18877,57.48157,1.29,286.875,6,5,1417175898,1.54715,0.7511139,-0.1226501,43.9539,-2.696762,-13.02677,200.3051,198.0268,20,0.04965198,0.4644209,0.184426,0.169262,1.278149,-0.06727913,0.01209542,-0.8210509,-0.1717555,1.121099,0.4099292,-0.0604618,0.0.0.0,10.205.173.28,1,0
2014-11-28 12:58:18.343,253,8.433333,56.17324,10.18877,57.48157,1.29,286.875,6,5,1417175898,0.806778,0.7465973,-0.02392578,43.59955,-2.950699,-13.67125,200.6529,198.3746,20,0.1558996,0.1925386,0.1917289,0.16257,1.297735,-0.0563221,0.5702404,0.6459969,0.3806006,0.1131468,0.7339451,0.2337609,0.0.0.0,10.205.173.28,1,0
2014-11-28 12:58:18.376,254,8.466667,56.17324,10.18877,57.48157,1.29,286.875,6,5,1417175898,0.5412445,0.480957,-0.432724,43.31265,-2.79834,-14.11743,198.6613,196.383,20,-0.8578239,-0.1789373,-0.4710171,0.170298,1.303591,-0.05753044,-0.7795317,0.07655518,-0.2321678,-0.3345904,0.4580042,0.08372967,0.0.0.0,10.205.173.28,1,0
2014-11-28 12:58:18.410,255,8.5,56.17324,10.18877,57.48157,1.29,286.875,6,5,1417175898,1.051697,0.2575836,0.230835,43.34641,-2.493622,-13.88608,198.4495,196.1712,20,-0.4958763,0.5916671,-1.197724,0.1918252,1.301759,-0.08454496,-0.7914159,0.08390466,-0.9450263,-0.2109195,0.2533548,0.1111221,0.0.0.0,10.205.173.28,1,0
2014-11-28 12:58:18.443,256,8.533334,56.17324,10.18877,57.48157,1.29,286.875,6,5,1417175898,1.136063,0.446167,0.1966248,43.36328,-1.799576,-13.20855,199.6668,197.3885,20,-0.3391994,2.171952,-0.7467179,0.1962325,1.334044,-0.1231871,-0.3480581,1.657745,-1.022849,0.1752763,0.1748385,0.4889796,0.0.0.0,10.205.173.28,1,0
2014-11-28 12:58:18.476,257,8.566668,56.17324,10.18877,57.48157,1.29,286.875,6,5,1417175898,0.7431641,0.4021606,-0.1088715,43.66702,-1.020889,-11.95264,201.4814,199.2031,20,-0.6058337,2.255791,-0.37263,0.2058863,1.408826,-0.1426363,-0.5330925,2.406087,-0.302851,-0.04741512,0.4517648,0.1578405,0.0.0.0,10.205.173.28,1,0
2014-11-28 12:58:18.510,258,8.6,56.17324,10.18877,57.48157,1.29,286.875,6,5,1417175898,0.6165619,0.2962036,-0.302124,44.12265,0.7904205,-8.862457,202.544,200.2657,20,-0.3652826,1.719503,-0.448373,0.2250795,1.478722,-0.1572865,-0.6136616,1.856297,-0.4224536,-0.3212715,0.2010578,-0.1989553,0.0.0.0,10.205.173.28,1,0
2014-11-28 12:58:18.543,259,8.633334,56.17324,10.18877,57.48157,1.29,286.875,6,5,1417175898,0.5670166,0.3689117,0.0486908,44.13951,1.450607,-6.598518,203.3982,201.1199,20,0.2154178,1.91557,-0.3855016,0.2281852,1.556118,-0.1735144,0.2256799,1.962976,-0.3393671,-0.4334254,0.2235647,-0.1339037,0.0.0.0,10.205.173.28,1,0
2014-11-28 12:58:18.576,260,8.666667,56.17324,10.18877,57.48157,1.29,286.875,6,5,1417175898,0.6341705,0.2814941,0.06175232,44.47702,1.823029,-4.714653,205.1842,202.906,20,0.02463824,1.878245,-0.327401,0.2225744,1.616784,-0.1858382,0.04013529,1.939597,-0.3981284,-0.3970564,0.1550276,0.04725825,0.0.0.0,10.205.173.28,1,0
2014-11-28 12:58:18.610,261,8.700001,56.17324,10.18877,57.48157,1.29,286.875,6,5,1417175898,0.675827,0.170517,-0.04244995,44.54453,2.364716,-2.698601,207.1429,204.8646,20,0.03951092,1.854169,-0.4212564,0.2234311,1.677366,-0.1969043,0.0602315,1.854851,-0.3204913,-0.3154454,-0.007356149,-0.1813394,0.0.0.0,10.205.173.28,1,0
2014-11-28 12:58:18.643,262,8.733334,56.17324,10.18877,57.48157,1.29,286.875,6,5,1417175898,0.597702,0.3254852,-0.09489441,44.2914,2.991028,1.911888,212.3433,210.065,20,0.1308483,1.615049,-0.8371985,0.2244195,1.736342,-0.2101411,-0.01756454,1.833388,-0.499696,-0.3331154,0.04472851,-0.3036823,0.0.0.0,10.205.173.28,1,0
2014-11-28 12:58:18.676,263,8.766667,56.17324,10.18877,57.48157,1.29,286.875,6,5,1417175898,0.6222076,0.3496704,0.07929993,43.8864,3.431152,3.894897,214.7219,212.4436,20,-0.1969698,1.432488,-1.202209,0.227624,1.789431,-0.2349949,0.02006451,1.569574,-0.9868249,-0.3587575,0.1084096,-0.1770921,0.0.0.0,10.205.173.28,1,0
2014-11-28 12:58:18.710,264,8.8,56.17324,10.18877,57.48157,1.29,286.875,6,5,1417175898,0.9645538,0.1533661,-0.01489258,43.24515,4.345276,5.977058,217.902,215.6237,20,-0.31429,1.047836,-0.8578188,0.2428609,1.839635,-0.2689849,-0.1932054,1.369845,-1.084227,-0.02311702,-0.05756211,-0.3284486,0.0.0.0,10.205.173.28,1,0
2014-11-28 12:58:18.743,265,8.833334,56.17324,10.18877,57.48157,1.29,286.875,6,5,1417175898,1.251755,0.4640503,-0.09138489,42.31703,6.224304,9.067238,223.9698,221.6915,20,-0.02816479,0.7322641,-0.5374046,0.2608112,1.879787,-0.292944,-0.343906,0.8587254,-0.7431245,0.1421429,0.1342473,-0.422246,0.0.0.0,10.205.173.28,1,0
2014-11-28 12:58:18.776,266,8.866667,56.17324,10.18877,57.48157,1.29,286.875,6,5,1417175898,1.400299,0.2761993,-0.1808167,41.74329,7.23999,10.3562,225.992,223.7137,20,0.2328822,0.6081227,-0.1570738,0.2701803,1.906552,-0.3084978,0.0352274,0.7300576,-0.4359013,0.4799738,0.09491664,-0.3818904,0.0.0.0,10.205.173.28,1,0
2014-11-28 12:58:18.809,267,8.900001,56.17324,10.18877,57.48157,1.29,286.875,6,5,1417175898,1.343842,0.2528992,-0.1470032,41.42265,8.001755,11.33118,227.9588,225.6805,20,0.08428372,0.02929637,0.06232809,0.2674274,1.925075,-0.3161586,0.1794692,0.4035817,-0.07739881,0.5088874,-0.0347185,-0.5105367,0.0.0.0,10.205.173.28,1,0
2014-11-28 12:58:18.843,268,8.933333,56.17324,10.18877,57.48157,1.29,286.875,6,5,1417175898,1.306274,0.4687653,0.1129456,41.10204,8.221817,11.90955,229.4565,227.1783,20,-0.363224,-0.9311178,0.8800115,0.2654999,1.926079,-0.3147623,-0.1513061,-0.3299405,0.2413642,0.6062705,-0.1627246,-0.04521215,0.0.0.0,10.205.173.28,1,0
2014-11-28 12:58:18.876,269,8.966667,56.17324,10.18877,57.48157,1.29,286.875,6,5,1417175898,0.6931763,0.8414917,0.1512604,40.95015,7.730896,11.69473,228.2149,225.9366,20,0.1071989,-1.602036,1.152096,0.2665083,1.899431,-0.287578,-0.07776105,-1.144956,1.135966,0.1169363,0.3091124,-0.09944484,0.0.0.0,10.205.173.28,1,0
2014-11-28 12:58:18.910,270,9,56.17324,10.18877,57.48157,1.29,286.875,6,5,1417175898,1.343475,0.7785645,0.2857971,41.33829,6.867569,11.05025,226.6486,224.3703,20,0.8535309,-1.75874,0.9344558,0.231628,1.803516,-0.2362828,0.8771594,-1.803926,0.9341963,0.1053849,0.7919869,-0.112919,0.0.0.0,10.205.173.28,1,0
2014-11-28 12:58:18.943,271,9.033334,56.17324,10.18877,57.48157,1.29,286.875,6,5,1417175898,1.428223,0.6028137,-0.01222229,42.03017,5.801102,9.876968,223.9697,221.6914,20,0.349489,-2.046944,1.089726,0.2047054,1.741234,-0.2084077,0.3385518,-1.889511,1.126373,0.4640369,0.3959114,-0.178166,0.0.0.0,10.205.173.28,1,0
2014-11-28 12:58:18.976,272,9.066668,56.17324,10.18877,57.48157,1.29,286.875,6,5,1417175898,1.305435,0.8886414,-0.1824341,43.41391,3.634262,6.307556,219.7219,217.4436,20,1.644671,-1.661566,1.067966,0.1782367,1.677072,-0.1763942,1.246832,-1.604911,1.0919,0.4217368,0.7257643,-0.4081709,0.0.0.0,10.205.173.28,1,0
2014-11-28 12:58:19.010,273,9.1,56.17324,10.18877,57.48157,1.29,286.875,6,5,1417175898,1.022339,0.6402588,0.01579285,43.98766,2.313873,4.126244,217.4568,215.1785,20,1.392265,-1.971696,0.9369246,0.124148,1.612061,-0.1471092,1.550265,-1.934306,0.9704534,0.1477668,0.6675535,-0.004186559,0.0.0.0,10.205.173.28,1,0
2014-11-28 12:58:19.042,274,9.133334,56.17324,10.18877,57.48157,1.29,286.875,6,5,1417175898,0.8539429,0.3977203,0.02577209,44.12265,1.19664,1.746635,214.6823,212.4041,20,0.4935357,-2.28867,1.084442,0.08649186,1.542457,-0.1154323,0.818232,-2.135825,1.094215,-0.1390034,0.2825442,0.0539193,0.0.0.0,10.205.173.28,1,0
2014-11-28 12:58:19.076,275,9.166667,56.17324,10.18877,57.48157,1.29,286.875,6,5,1417175898,0.5000916,0.04924011,0.02322388,44.42641,-1.004028,-2.979538,212.2146,209.9363,20,-0.361367,-2.247589,0.7509004,0.08191979,1.467609,-0.08298278,-0.1817704,-2.366956,0.87056,-0.4271407,0.01234253,0.1173437,0.0.0.0,10.205.173.28,1,0
2014-11-28 12:58:19.110,276,9.200001,56.17324,10.18877,57.48157,1.29,286.875,6,5,1417175898,0.1927643,0.1043091,-0.08415222,44.27454,-1.968933,-5.14431,210.0259,207.7476,20,-0.5060954,-1.659425,0.4958473,0.09991577,1.400743,-0.06293252,-0.573939,-1.927287,0.5866278,-0.6952794,0.003469485,0.1440276,0.0.0.0,10.205.173.28,1,0
2014-11-28 12:58:19.143,277,9.233334,56.17324,10.18877,57.48157,1.29,286.875,6,5,1417175898,0.02906799,0.1434631,-0.07478333,43.97078,-2.849197,-7.226471,207.9924,205.7141,20,-0.5520986,-0.9534114,0.3674547,0.1192387,1.355844,-0.05052896,-0.4939286,-1.111665,0.4690018,-0.8252422,0.09849461,0.1409,0.0.0.0,10.205.173.28,1,0
2014-11-28 12:58:19.176,278,9.266667,56.17324,10.18877,57.48157,1.29,286.875,6,5,1417175898,-0.01402283,0.132019,-0.1722565,43.8864,-3.509399,-8.994659,205.8796,203.6013,20,-0.728765,-0.323813,-0.05879274,0.1412763,1.330442,-0.04627958,-0.7188382,-0.5832315,0.1321041,-0.9767445,0.08065955,0.1258078,0.0.0.0,10.205.173.28,1,0
2014-11-28 12:58:19.210,279,9.3,56.17324,10.18873,59.46814,1.33,282.3047,6,5,1417175899,0.4911804,0.06182861,-0.7525482,43.1608,-3.59404,-10.89504,202.5479,200.2696,20,-0.6733534,0.2957603,-0.4280203,0.1646011,1.32719,-0.05795753,-0.8096225,0.1446407,-0.3717482,-0.8281894,0.01662935,-0.1748199,0.0.0.0,10.205.173.28,1,0
2014-11-28 12:58:19.243,280,9.333334,56.17324,10.18873,59.46814,1.33,282.3047,6,5,1417175899,1.217972,-0.07965088,-0.4437408,42.77266,-3.2724,-11.20902,201.5523,199.274,20,-0.2857055,-0.05942125,-0.2024325,0.1814253,1.339857,-0.07983997,-0.183154,0.2158478,-0.3106198,-0.0773913,-0.05730949,-0.6036701,0.0.0.0,10.205.173.28,1,0
2014-11-28 12:58:19.276,281,9.366667,56.17324,10.18873,59.46814,1.33,282.3047,6,5,1417175899,1.751465,0.02302551,-0.3571777,42.5533,-2.74762,-11.55605,200.7942,198.5159,20,-0.9080804,-0.5256137,-0.05680443,0.1833645,1.341955,-0.0853173,-0.3210795,-0.05282179,-0.1922967,0.5004836,-0.2179958,0.04642807,0.0.0.0,10.205.173.28,1,0
2014-11-28 12:58:19.309,282,9.400001,56.17324,10.18873,59.46814,1.33,282.3047,6,5,1417175899,0.9238129,0.6214752,-1.010117,42.18205,-1.968933,-11.98572,199.9004,197.6221,20,-0.2086632,-0.6519917,0.09961235,0.2179366,1.326549,-0.08383506,-0.5481185,-0.4857112,0.5158966,0.4291911,0.6831241,-0.6912743,0.0.0.0,10.205.173.28,1,0
2014-11-28 12:58:19.343,283,9.433333,56.17324,10.18873,59.46814,1.33,282.3047,6,5,1417175899,1.0952,0.2318878,-1.209961,42.16519,-1.782715,-12.43188,198.4011,196.1228,20,0.5757062,-1.782821,-0.01025424,0.2290989,1.309446,-0.08086128,-0.2053489,-0.1913478,-0.0463822,-0.5275521,0.06465833,-0.7131621,0.0.0.0,10.205.173.28,1,0
2014-11-28 12:58:19.376,284,9.466667,56.17324,10.18873,59.46814,1.33,282.3047,6,5,1417175899,1.457352,0.6699677,0.1971588,41.81081,-1.799652,-13.20856,197.2052,194.9269,20,0.608739,0.7494559,0.7914169,0.2213303,1.270339,-0.07844828,0.4150416,-1.647807,0.1886681,1.129875,0.4311384,0.1910892,0.0.0.0,10.205.173.28,1,0
2014-11-28 12:58:19.410,285,9.500001,56.17324,10.18873,59.46814,1.33,282.3047,6,5,1417175899,0.5309601,0.82901,0.06462097,41.89519,-2.087433,-13.52254,197.9063,195.628,20,-0.7510519,-0.05904441,0.2055063,0.2162361,1.279115,-0.05289168,0.3383466,0.3895743,0.9282537,-0.06964248,0.7450761,0.5049499,0.0.0.0,10.205.173.28,1,0
2014-11-28 12:58:19.443,286,9.533334,56.17324,10.18873,59.46814,1.33,282.3047,6,5,1417175899,0.4042816,0.4745636,-0.4495239,41.27081,-2.849197,-14.53057,195.6364,193.3581,20,-0.4454065,-0.4783173,-0.725085,0.2358689,1.278366,-0.04811284,-0.8709961,-0.1534314,-0.1423502,-0.6370717,0.5188766,0.00773375,0.0.0.0,10.205.173.28,1,0
2014-11-28 12:58:19.476,287,9.566668,56.17324,10.18873,59.46814,1.33,282.3047,6,5,1417175899,1.351883,0.4006348,0.3060608,41.10207,-2.916931,-14.59668,194.429,192.1507,20,0.1961754,0.9320582,-0.9633122,0.2454702,1.266402,-0.07262677,-0.2061371,-0.2381951,-0.9187592,-0.3108886,0.314461,-0.08489413,0.0.0.0,10.205.173.28,1,0
2014-11-28 12:58:19.510,288,9.6,56.17324,10.18873,59.46814,1.33,282.3047,6,5,1417175899,0.6907196,0.5566406,-0.1552124,41.42268,-2.933823,-14.51405,195.8534,193.5751,20,-0.4204205,1.990747,-0.1910056,0.2347445,1.289905,-0.1000998,0.004524244,1.504597,-0.6423324,0.398783,0.4270143,0.6569279,0.0.0.0,10.205.173.28,1,0
2014-11-28 12:58:19.543,289,9.633334,56.17324,10.18873,59.46814,1.33,282.3047,6,5,1417175899,0.8200073,0.3600464,-0.271286,41.30457,-2.578354,-13.96872,197.3534,195.0751,20,-0.4874597,1.829076,-0.6441028,0.2441962,1.352307,-0.11233,-0.5080946,1.970692,-0.3506269,-0.2793539,0.4445467,0.06017662,0.0.0.0,10.205.173.28,1,0
2014-11-28 12:58:19.576,290,9.666667,56.17324,10.18873,59.46814,1.33,282.3047,6,5,1417175899,0.8981934,0.2882538,-0.3384399,41.97955,-0.9871216,-11.42387,197.2252,194.9469,20,-0.1158789,1.689047,-0.4876682,0.2567403,1.412988,-0.133607,-0.4544091,1.704268,-0.593377,-0.04311895,0.1764368,-0.1676866,0.0.0.0,10.205.173.28,1,0
2014-11-28 12:58:19.610,291,9.700001,56.17324,10.18873,59.46814,1.33,282.3047,6,5,1417175899,0.622818,0.3609924,-0.1244507,42.3508,-0.3438416,-9.705254,198.9736,196.6953,20,0.04876408,1.550926,-0.5248079,0.2609716,1.4672,-0.1500435,-0.01018851,1.674498,-0.4450457,-0.1560861,0.1388489,-0.172439,0.0.0.0,10.205.173.28,1,0
2014-11-28 12:58:19.643,292,9.733334,56.17324,10.18873,59.46814,1.33,282.3047,6,5,1417175899,0.6945953,0.2463684,-0.1699066,42.48581,0.6041412,-7.722244,200.5355,198.2572,20,-0.1159559,1.652003,-0.6397597,0.2595713,1.517586,-0.1660283,-0.07071102,1.551507,-0.5989019,-0.3620351,0.1957259,-0.07199681,0.0.0.0,10.205.173.28,1,0
2014-11-28 12:58:19.676,293,9.766667,56.17324,10.18873,59.46814,1.33,282.3047,6,5,1417175899,0.8188934,0.1105194,-0.1364441,42.8064,2.178436,-4.235451,204.3405,202.0622,20,-0.06305806,1.56479,-0.3812003,0.2633705,1.570457,-0.1859819,-0.1290104,1.665402,-0.5726882,-0.2127203,-0.00964916,-0.195712,0.0.0.0,10.205.173.28,1,0
2014-11-28 12:58:19.710,294,9.8,56.17324,10.18873,59.46814,1.33,282.3047,6,5,1417175899,0.7881317,0.1909332,-0.1388245,42.65453,2.53392,-2.500313,206.0521,203.7738,20,-0.3976211,1.271232,-0.4845531,0.2739324,1.652725,-0.206599,-0.3606458,1.311008,-0.4314233,-0.1797665,-0.02109616,-0.2182346,0.0.0.0,10.205.173.28,1,0
2014-11-28 12:58:19.743,295,9.833334,56.17324,10.18873,59.46814,1.33,282.3047,6,5,1417175899,0.7888947,0.2975006,-0.254837,42.1989,2.957108,-0.8312836,208.1055,205.8272,20,-0.3681287,1.54882,-0.6965657,0.2902738,1.698408,-0.2215897,-0.4636585,1.420261,-0.6030332,-0.2283132,0.0149452,-0.3349386,0.0.0.0,10.205.173.28,1,0
2014-11-28 12:58:19.777,296,9.866667,56.17324,10.18873,59.46814,1.33,282.3047,6,5,1417175899,0.764267,0.3395691,-0.3133698,41.69266,4.175964,2.407623,211.2464,208.9682,20,-0.156114,1.625637,-0.8923883,0.3055471,1.753308,-0.2427304,-0.2894474,1.698657,-0.7911145,-0.1615791,0.08383435,-0.4547748,0.0.0.0,10.205.173.28,1,0
2014-11-28 12:58:19.810,297,9.900001,56.17324,10.18873,59.46814,1.33,282.3047,6,5,1417175899,1.088196,0.2707825,0.1566925,41.16954,4.497574,4.076653,213.6045,211.3262,20,-0.1838069,0.8448681,-0.7814282,0.3162935,1.801693,-0.2696069,-0.1178717,1.103395,-0.8794748,0.01937625,0.0192767,-0.1533535,0.0.0.0,10.205.173.28,1,0
2014-11-28 12:58:19.844,298,9.933333,56.17324,10.18873,59.46814,1.33,282.3047,6,5,1417175899,1.178787,0.184021,-0.2101135,40.88268,5.360931,5.580437,214.6442,212.366,20,-0.5382912,0.08976424,-0.2433937,0.3321979,1.825935,-0.2854742,-0.5388911,0.2734067,-0.348003,0.3021088,-0.09647758,-0.1332326,0.0.0.0,10.205.173.28,1,0
2014-11-28 12:58:19.876,299,9.966667,56.17324,10.18873,59.46814,1.33,282.3047,6,5,1417175899,1.356766,0.213501,-0.002975464,40.71394,5.936478,6.73719,216.4876,214.2093,20,-0.4368095,-0.4566791,0.2944236,0.3480616,1.830785,-0.2860866,-0.3149798,-0.1563921,0.02054888,0.2771549,-0.09247223,-0.4323052,0.0.0.0,10.205.173.28,1,0
2014-11-28 12:58:19.910,300,10,56.17324,10.18873,59.46814,1.33,282.3047,6,5,1417175899,0.9948883,0.4276123,0.2671204,40.20769,5.970306,7.530396,216.856,214.5777,20,-0.01844958,-1.07496,1.123132,0.3580573,1.815729,-0.2654065,-0.3048798,-0.7475801,0.9170977,0.4767944,0.2371339,-0.3338078,0.0.0.0,10.205.173.28,1,0
2014-11-28 12:58:19.943,301,10.03333,56.17324,10.18873,59.46814,1.33,282.3047,6,5,1417175899,0.9351349,0.7732086,-0.02479553,40.24144,5.564011,7.100731,215.0291,212.7509,20,-0.09281729,-2.430828,1.227262,0.3502977,1.74587,-0.2124074,-0.1400543,-2.27089,1.326363,-0.2014904,0.3980882,-0.09131712,0.0.0.0,10.205.173.28,1,0
2014-11-28 12:58:19.976,302,10.06667,56.17324,10.18873,59.46814,1.33,282.3047,6,5,1417175899,1.283096,1.145691,0.1744385,40.41019,4.514481,5.943985,211.7507,209.4725,20,0.2273043,-1.718286,0.980402,0.3486126,1.695297,-0.186879,-0.04181815,-2.252471,1.096524,0.1718825,0.7917001,-0.1502311,0.0.0.0,10.205.173.28,1,0
2014-11-28 12:58:20.010,303,10.1,56.17324,10.18873,59.46814,1.33,282.3047,6,5,1417175899,1.273804,1.144516,-0.281601,41.0177,2.00914,2.473724,206.0303,203.752,20,1.052788,-1.150518,0.8276436,0.333527,1.647651,-0.157861,0.6724419,-1.040543,0.883016,0.2984456,0.9884848,0.09861455,0.0.0.0,10.205.173.28,1,0
2014-11-28 12:58:20.043,304,10.13333,56.17324,10.18873,59.46814,1.33,282.3047,6,5,1417175899,1.142563,0.6104126,-0.204895,41.38895,0.654892,0.5898666,203.8042,201.5259,20,1.481309,-2.016093,0.6061954,0.2916805,1.596282,-0.1350798,1.527277,-1.882593,0.6762663,0.2300428,0.7553758,-0.2940499,0.0.0.0,10.205.173.28,1,0
2014-11-28 12:58:20.077,305,10.16667,56.17324,10.18873,59.46814,1.33,282.3047,6,5,1417175899,0.9558105,0.2555542,-0.1333618,41.72646,-0.5977631,-1.22789,202.9099,200.6316,20,0.3166629,-1.938177,0.8686613,0.236903,1.508404,-0.1046565,0.8964952,-1.879068,0.80013,0.07037965,0.3333396,-0.07780543,0.0.0.0,10.205.173.28,1,0
2014-11-28 12:58:20.110,306,10.2,56.17324,10.18873,59.46814,1.33,282.3047,6,5,1417175899,0.6057892,0.183136,-0.1026459,41.87831,-1.562653,-3.293518,202.8927,200.6144,20,0.1095899,-1.843518,0.9062721,0.2271618,1.446419,-0.07620784,0.1613695,-1.929265,0.9105555,-0.1141357,0.1548077,-0.03713086,0.0.0.0,10.205.173.28,1,0
2014-11-28 12:58:20.144,307,10.23333,56.17324,10.18873,59.46814,1.33,282.3047,6,5,1417175899,0.3523407,0.1753693,0.02508545,41.50708,-3.390884,-6.664635,200.1702,197.8919,20,-0.3163835,-1.651004,0.6105294,0.2292832,1.387378,-0.04741539,-0.02152974,-1.799066,0.8627291,-0.5143017,0.1371116,0.1528438,0.0.0.0,10.205.173.28,1,0
2014-11-28 12:58:20.176,308,10.26667,56.17324,10.18873,59.46814,1.33,282.3047,6,5,1417175899,0.1227875,0.1881409,-0.188324,41.06834,-4.304993,-8.482391,198.3892,196.1109,20,-0.4229728,-0.955943,0.1165841,0.2425445,1.335535,-0.02905085,-0.4388961,-1.393997,0.4780895,-0.7685672,0.1530364,0.200589,0.0.0.0,10.205.173.28,1,0
2014-11-28 12:58:20.210,309,10.3,56.17324,10.18873,59.46814,1.33,282.3047,6,5,1417175899,0.3071899,0.1920166,-0.216217,40.4102,-4.897491,-10.31667,196.3471,194.0688,20,-0.4663104,-0.3581257,-0.3294096,0.2581288,1.303522,-0.02747062,-0.4477829,-0.8082156,-0.07171088,-0.8307382,0.1614672,0.06422018,0.0.0.0,10.205.173.28,1,0
2014-11-28 12:58:20.243,310,10.33333,56.17324,10.1887,59.48413,1.34,268.5938,6,5,1417175900,0.3678131,0.185318,-0.2472992,39.49895,-5.40535,-12.43188,193.794,191.5157,20,-0.5021345,0.4037105,-0.4238431,0.2709643,1.29058,-0.04059543,-0.5266476,-0.09851277,-0.3810282,-0.6155993,0.1557658,0.04717932,0.0.0.0,10.205.173.28,1,0
2014-11-28 12:58:20.276,311,10.36667,56.17324,10.1887,59.48413,1.34,268.5938,6,5,1417175900,0.523941,0.1101685,-0.5583954,39.36395,-4.897507,-12.92763,192.9703,190.692,20,-0.3959263,1.052224,-0.3458868,0.2839476,1.302152,-0.05781354,-0.5416908,0.6590289,-0.3917416,-0.5201533,0.09642398,-0.08485721,0.0.0.0,10.205.173.28,1,0
2014-11-28 12:58:20.310,312,10.4,56.17324,10.1887,59.48413,1.34,268.5938,6,5,1417175900,0.9956207,0.1266022,-0.8954163,39.22896,-4.457367,-12.72933,192.6724,190.3941,20,-0.07919655,0.81178,-0.2362991,0.2947983,1.334438,-0.0720768,-0.3103356,1.147667,-0.3079003,-0.3869855,0.01837865,-0.4158123,0.0.0.0,10.205.173.28,1,0
2014-11-28 12:58:20.343,313,10.43333,56.17324,10.1887,59.48413,1.34,268.5938,6,5,1417175900,1.460785,0.2423401,-0.5538635,39.31332,-4.101898,-12.2501,192.1071,189.8288,20,-0.3402063,-0.9694314,-0.04129897,0.2970758,1.361386,-0.08034946,0.05000865,0.4456399,-0.1696413,0.02062291,0.04633914,-0.6882036,0.0.0.0,10.205.173.28,1,0
2014-11-28 12:58:20.375,314,10.46667,56.17324,10.1887,59.48413,1.34,268.5938,6,5,1417175900,1.250916,0.4651031,-0.7388306,39.17833,-3.187759,-11.91959,191.9671,189.6888,20,-0.611322,-0.9017221,0.3973231,0.3046279,1.34193,-0.08275852,-0.4499572,-1.028102,0.2507184,0.8682916,0.4652333,-0.4084851,0.0.0.0,10.205.173.28,1,0
2014-11-28 12:58:20.410,315,10.5,56.17324,10.1887,59.48413,1.34,268.5938,6,5,1417175900,0.6743011,0.02574158,-1.096832,38.95895,-3.306274,-11.90308,192.0584,189.7801,20,-0.3120197,0.008094678,0.2517009,0.339491,1.306182,-0.0725345,-0.5207781,-0.1285577,0.249159,-0.4147735,-0.1058266,-0.7650297,0.0.0.0,10.205.173.28,1,0
2014-11-28 12:58:20.443,316,10.53333,56.17324,10.1887,59.48413,1.34,268.5938,6,5,1417175900,1.655518,0.6213989,-0.09840393,38.58771,-3.27243,-12.20054,191.4466,189.1683,20,0.3776546,0.02888651,0.2634519,0.3456974,1.295439,-0.06415777,0.2475175,-0.7869107,0.3135041,0.4594821,0.3250464,-0.6577609,0.0.0.0,10.205.173.28,1,0
2014-11-28 12:58:20.478,317,10.56667,56.17324,10.1887,59.48413,1.34,268.5938,6,5,1417175900,0.5300293,0.7893829,-0.08503723,38.41896,-3.27243,-12.69628,189.9557,187.6774,20,0.2403623,0.4568687,0.3209959,0.33834,1.314535,-0.04713961,0.4268644,1.056111,0.6097572,-0.2479166,0.6653259,0.1236063,0.0.0.0,10.205.173.28,1,0
2014-11-28 12:58:20.510,318,10.6,56.17324,10.1887,59.48413,1.34,268.5938,6,5,1417175900,0.73526,0.6362152,-0.2416382,38.14897,-3.983414,-12.63018,188.5331,186.2549,20,-0.5309848,0.2506224,-0.4782859,0.3417272,1.324686,-0.04570616,-0.5332391,0.214555,-0.2969735,-0.2445503,0.6224769,0.1303571,0.0.0.0,10.205.173.28,1,0
2014-11-28 12:58:20.542,319,10.63333,56.17324,10.1887,59.48413,1.34,268.5938,6,5,1417175900,0.9419861,0.4813538,0.006027222,37.98021,-3.780258,-12.39884,189.349,187.0707,20,-0.01064679,0.60976,-0.9512931,0.3509887,1.332471,-0.06760059,-0.2470852,0.265362,-0.8111898,-0.1387351,0.5280319,-0.1436139,0.0.0.0,10.205.173.28,1,0
2014-11-28 12:58:20.576,320,10.66667,56.17324,10.1887,59.48413,1.34,268.5938,6,5,1417175900,0.877243,0.5380402,0.01301575,38.18269,-3.27243,-12.16748,189.7258,187.4475,20,0.06322104,1.884377,-0.9021195,0.344162,1.362813,-0.09606243,0.06279094,1.507655,-0.887548,-0.1140445,0.2958394,0.3594501,0.0.0.0,10.205.173.28,1,0
2014-11-28 12:58:20.610,321,10.7,56.17324,10.1887,59.48413,1.34,268.5938,6,5,1417175900,1.011429,0.5493622,0.01057434,38.53708,-2.172089,-10.26711,193.5074,191.2291,20,-0.05376257,2.079041,-0.8095397,0.3379146,1.428065,-0.1244145,0.02957195,2.272758,-0.9090075,-0.02658335,0.4601958,0.130497,0.0.0.0,10.205.173.28,1,0
2014-11-28 12:58:20.642,322,10.73333,56.17324,10.1887,59.48413,1.34,268.5938,6,5,1417175900,0.7368927,0.2937164,-0.1620789,38.82394,-1.511887,-8.994682,194.928,192.6497,20,-0.426624,1.764858,-0.6107219,0.342973,1.491686,-0.1476433,-0.4513135,1.80303,-0.5958412,-0.07141513,0.1989008,0.06087998,0.0.0.0,10.205.173.28,1,0
2014-11-28 12:58:20.676,323,10.76667,56.17324,10.1887,59.48413,1.34,268.5938,6,5,1417175900,0.622818,0.4019318,-0.1175995,39.1277,-0.7332153,-7.507416,196.0381,193.7598,20,0.1674124,1.992099,-0.4689102,0.3524227,1.550848,-0.1671966,-0.07236568,1.879226,-0.5282891,-0.2830239,0.07596721,-0.1688235,0.0.0.0,10.205.173.28,1,0
2014-11-28 12:58:20.710,324,10.8,56.17324,10.1887,59.48413,1.34,268.5938,6,5,1417175900,0.5721588,0.4246826,-0.0249176,39.31332,0.2993927,-3.590973,200.5544,198.2761,20,0.2972974,1.850023,-0.3742567,0.345877,1.612281,-0.1815506,0.3013402,1.90036,-0.4132321,-0.377372,0.2490869,-0.1028029,0.0.0.0,10.205.173.28,1,0
2014-11-28 12:58:20.743,325,10.83333,56.17324,10.1887,59.48413,1.34,268.5938,6,5,1417175900,0.7631073,0.2149353,-0.08959961,39.17833,0.8072205,-1.773216,202.8027,200.5244,20,0.4900896,1.626902,-0.2997817,0.3368496,1.668147,-0.1935862,0.3745211,1.694323,-0.3349831,-0.3978016,0.1153294,-0.1466812,0.0.0.0,10.205.173.28,1,0
2014-11-28 12:58:20.776,326,10.86667,56.17324,10.1887,59.48413,1.34,268.5938,6,5,1417175900,0.5844269,0.232132,-0.1506805,38.87457,1.315079,0.1106491,205.4863,203.208,20,0.5614913,1.670393,-0.3662789,0.3151143,1.736734,-0.2048622,0.6112882,1.762745,-0.1234859,-0.3027068,0.02491551,-0.2980603,0.0.0.0,10.205.173.28,1,0
2014-11-28 12:58:20.809,327,10.9,56.17324,10.1887,59.48413,1.34,268.5938,6,5,1417175900,0.7233276,0.2051086,0.0202179,38.68895,1.907578,3.630486,211.2849,209.0066,20,-0.2132745,1.568419,-0.7932001,0.3007407,1.787804,-0.2182578,0.3630384,1.624683,-0.5295346,-0.3741704,0.01293259,-0.2148844,0.0.0.0,10.205.173.28,1,0
2014-11-28 12:58:20.843,328,10.93333,56.17324,10.1887,59.48413,1.34,268.5938,6,5,1417175900,0.9437408,0.161377,-0.172287,38.55394,2.246124,5.183853,214.0314,211.7531,20,-0.2450457,0.9867206,-0.7308449,0.3107416,1.8404,-0.2401371,-0.3469063,1.490695,-0.7868451,-0.09571856,-0.0408448,-0.3433167,0.0.0.0,10.205.173.28,1,0
2014-11-28 12:58:20.876,329,10.96667,56.17324,10.1887,59.48413,1.34,268.5938,6,5,1417175900,0.9077148,0.3594055,-0.1260681,38.48645,2.65242,6.770256,216.7791,214.5008,20,-0.3443193,0.7375028,-0.681088,0.3277995,1.878952,-0.2596273,-0.409011,0.8519321,-0.7119884,-0.003997399,0.009286138,-0.2455292,0.0.0.0,10.205.173.28,1,0
2014-11-28 12:58:20.910,330,11,56.17324,10.1887,59.48413,1.34,268.5938,6,5,1417175900,1.225784,0.5083923,-0.06838989,38.23332,3.211044,8.174889,219.054,216.7757,20,0.004226969,0.5586572,-0.5183153,0.3466391,1.907985,-0.2762292,-0.20231,0.7396079,-0.6303589,0.1657709,0.1734678,-0.5247147,0.0.0.0,10.205.173.28,1,0
2014-11-28 12:58:20.943,331,11.03333,56.17324,10.1887,59.48413,1.34,268.5938,6,5,1417175900,1.380508,0.423233,-0.1185608,37.45708,4.226746,10.15791,223.1919,220.9136,20,0.1833312,0.4218346,-0.1139513,0.3540846,1.928907,-0.2909505,-0.02273685,0.4803933,-0.3829663,0.4637633,0.1795525,-0.3991286,0.0.0.0,10.205.173.28,1,0
2014-11-28 12:58:20.976,332,11.06667,56.17324,10.1887,59.48413,1.34,268.5938,6,5,1417175900,1.451813,0.2715302,0.03712463,37.28833,4.599167,10.52146,224.1001,221.8218,20,0.040516,-0.3274429,0.2805765,0.3521219,1.941877,-0.2965228,0.2216994,0.3174838,-0.0194869,0.4459849,0.1177613,-0.6019239,0.0.0.0,10.205.173.28,1,0
2014-11-28 12:58:21.010,333,11.1,56.17324,10.1887,59.48413,1.34,268.5938,6,5,1417175900,1.001282,0.4597778,0.273407,36.93394,4.379074,10.73628,225.0754,222.7971,20,0.2093689,-1.151497,1.076774,0.3475699,1.933513,-0.2891223,-0.1821593,-0.7142704,0.5847774,0.6533986,0.05459541,-0.1905065,0.0.0.0,10.205.173.28,1,0
2014-11-28 12:58:21.043,334,11.13333,56.17324,10.1887,59.48413,1.34,268.5938,6,5,1417175900,0.8613281,0.739624,0.1239471,37.10271,3.972794,10.37273,224.2679,221.9896,20,0.1149175,-1.885823,1.063165,0.3339915,1.893687,-0.2598707,0.266082,-1.453543,1.158848,-0.1385721,0.2060724,0.05990655,0.0.0.0,10.205.173.28,1,0
2014-11-28 12:58:21.076,335,11.16667,56.17324,10.1887,59.48413,1.34,268.5938,6,5,1417175900,1.288376,0.9312439,0.199173,37.49081,1.958328,8.472343,219.8282,217.5499,20,0.4041901,-2.100833,0.7776308,0.3191894,1.831954,-0.2285731,0.2109881,-1.958001,0.9440613,-0.07963626,0.513036,-0.1275363,0.0.0.0,10.205.173.28,1,0
2014-11-28 12:58:21.110,336,11.2,56.17324,10.1887,59.48413,1.34,268.5938,6,5,1417175900,1.403015,0.9269714,-0.2925873,37.72705,0.6717834,7.31559,217.9248,215.6465,20,0.5416886,-1.805858,0.7651682,0.3026347,1.763412,-0.2053546,0.275505,-1.855632,0.8241109,0.4134597,0.6362652,0.0782814,0.0.0.0,10.205.173.28,1,0
2014-11-28 12:58:21.143,337,11.23333,56.17324,10.1887,59.48413,1.34,268.5938,6,5,1417175900,1.217712,0.7962494,-0.01622009,37.98018,-0.1238251,5.712654,215.848,213.5697,20,1.735962,-1.736603,0.76276,0.2819721,1.702806,-0.1830653,0.9773902,-1.812535,0.7396072,0.4018214,0.7923817,-0.496157,0.0.0.0,10.205.173.28,1,0
2014-11-28 12:58:21.183,338,11.26667,56.17324,10.1887,59.48413,1.34,268.5938,6,5,1417175900,0.890152,0.4527435,-0.002426147,38.63831,-1.054901,1.961464,212.3801,210.1018,20,1.038581,-2.126911,1.010221,0.1984527,1.585806,-0.1467312,1.241589,-2.203991,0.9166881,0.1051412,0.5181624,0.004485304,0.0.0.0,10.205.173.28,1,0
2014-11-28 12:58:21.210,339,11.3,56.17323,10.18867,58.34979,1.33,255.2344,8,5,1417175901,0.6784668,0.278183,-0.03323364,38.45268,-1.274948,-0.1372299,211.7139,209.4356,20,0.09491506,-2.248635,0.9830524,0.1746136,1.51467,-0.1129177,0.3409064,-2.183157,1.069125,-0.3136002,0.1655051,0.02250588,0.0.0.0,10.205.173.28,1,0
2014-11-28 12:58:21.244,340,11.33333,56.17323,10.18867,58.34979,1.33,255.2344,8,5,1417175901,0.3687439,0.1100006,-0.1027832,38.06458,-1.664291,-2.500313,209.5914,207.3131,20,-0.3236351,-1.799192,0.7505187,0.1791742,1.446112,-0.08368417,-0.2564271,-2.036735,0.8373451,-0.5294141,0.03276174,0.0424135,0.0.0.0,10.205.173.28,1,0
2014-11-28 12:58:21.278,341,11.36667,56.17323,10.18867,58.34979,1.33,255.2344,8,5,1417175901,0.2507629,0.1754913,-0.09326172,37.67642,-1.985931,-4.896454,205.8511,203.5728,20,-0.2314077,-1.15634,0.5268867,0.193158,1.395033,-0.06378862,-0.2902722,-1.369099,0.554291,-0.7576001,0.06812109,-0.003016803,0.0.0.0,10.205.173.28,1,0
2014-11-28 12:58:21.309,342,11.4,56.17323,10.18867,58.34979,1.33,255.2344,8,5,1417175901,0.2091064,0.1738586,-0.06639099,36.34332,-2.916992,-8.581543,200.161,197.8827,20,-0.520983,-0.691224,0.3050781,0.2062131,1.363208,-0.05021175,-0.4109875,-0.8049645,0.4206377,-0.7464321,0.1331437,0.1270442,0.0.0.0,10.205.173.28,1,0
2014-11-28 12:58:21.348,343,11.43333,56.17323,10.18867,58.34979,1.33,255.2344,8,5,1417175901,0.2427521,0.04992676,-0.2363739,35.7527,-3.069351,-9.754822,197.8779,195.5996,20,-0.8963745,-0.2089929,-0.2333297,0.2280204,1.345575,-0.04925849,-0.8160391,-0.4056584,-0.05661016,-0.7851926,0.02475129,0.05689837,0.0.0.0,10.205.173.28,1,0
2014-11-28 12:58:21.376,344,11.46667,56.17323,10.18867,58.34979,1.33,255.2344,8,5,1417175901,0.802063,-0.0932312,-0.9873047,35.24646,-2.967773,-10.54803,195.939,193.6607,20,-0.9999036,-0.1784808,-0.5095783,0.2556778,1.342013,-0.06687783,-1.033052,-0.1340685,-0.5055566,-0.5092261,-0.08352111,-0.2882253,0.0.0.0,10.205.173.28,1,0
2014-11-28 12:58:21.409,345,11.5,56.17323,10.18867,58.34979,1.33,255.2344,8,5,1417175901,1.552231,-0.1631165,-0.17276,34.52083,-2.206039,-11.42387,193.5697,191.2914,20,-0.3214065,0.5065151,-0.1423627,0.2798564,1.338725,-0.08558228,-0.5536129,0.02917204,-0.2517481,-0.003230143,-0.1605053,-0.7705886,0.0.0.0,10.205.173.28,1,0
2014-11-28 12:58:21.443,346,11.53333,56.17323,10.18867,58.34979,1.33,255.2344,8,5,1417175901,1.74881,0.55896,-0.5878296,34.18332,-2.036774,-11.82046,192.6595,190.3812,20,-0.9138137,-1.047771,0.7255569,0.2971682,1.348477,-0.08859384,-0.8579854,-0.4193424,0.3283378,0.8089848,0.02762613,-0.1020273,0.0.0.0,10.205.173.28,1,0
2014-11-28 12:58:21.476,347,11.56667,56.17323,10.18867,58.34979,1.33,255.2344,8,5,1417175901,0.4065857,0.3964539,-0.7686462,34.03145,-2.155273,-12.23359,190.9427,188.6644,20,-0.9758363,-0.4764233,0.4902608,0.3334363,1.324923,-0.07040809,-1.02637,-0.5138847,0.807164,-0.07050356,0.8752983,-0.5298588,0.0.0.0,10.205.173.28,1,0
2014-11-28 12:58:21.510,348,11.6,56.17323,10.18867,58.34979,1.33,255.2344,8,5,1417175901,1.18663,0.4277954,-0.6235657,33.87958,-2.17218,-12.67976,188.4163,186.138,20,-0.1596826,-0.7122286,-0.1503666,0.3716995,1.314615,-0.07063424,-0.6333528,-0.09035449,-0.08296061,-0.53055,-0.02730159,-0.5235497,0.0.0.0,10.205.173.28,1,0
2014-11-28 12:58:21.543,349,11.63333,56.17323,10.18867,58.34979,1.33,255.2344,8,5,1417175901,1.35347,0.77771,-0.2634888,33.74457,-2.37532,-13.96872,185.0363,182.7581,20,-0.2546163,-0.3504235,0.1269217,0.3813489,1.301441,-0.0756858,-0.4439137,-0.1728814,0.1728543,0.9199051,0.4962859,0.2356237,0.0.0.0,10.205.173.28,1,0
2014-11-28 12:58:21.576,350,11.66667,56.17323,10.18867,58.34979,1.33,255.2344,8,5,1417175901,0.6834412,0.3974304,-0.2507172,33.49146,-2.256836,-14.5471,184.1789,181.9007,20,-0.9191703,-0.7730904,-0.2951781,0.3938639,1.295195,-0.0742456,-0.5610193,-0.4750865,0.1254686,0.0119927,0.4981187,-0.01229997,0.0.0.0,10.205.173.28,1,0
2014-11-28 12:58:21.609,351,11.7,56.17323,10.18867,58.34979,1.33,255.2344,8,5,1417175901,1.045547,0.1537018,0.1840363,33.2552,-1.918289,-15.4064,182.299,180.0207,20,-1.661534,-0.9836194,-0.2990562,0.4202037,1.273597,-0.08870101,-1.145267,-1.329919,-0.3742211,-0.1905759,-0.01335891,0.0674184,0.0.0.0,10.205.173.28,1,0
2014-11-28 12:58:21.643,352,11.73333,56.17323,10.18867,58.34979,1.33,255.2344,8,5,1417175901,1.104614,0.4438782,0.1038361,33.1371,-1.359665,-16.34833,180.5594,178.2811,20,-1.646248,0.5172133,-0.2479896,0.4657751,1.245853,-0.1141061,-1.810115,-0.2308678,-0.2559611,0.1722939,0.08935788,0.7026617,0.0.0.0,10.205.173.28,1,0
2014-11-28 12:58:21.676,353,11.76667,56.17323,10.18867,58.34979,1.33,255.2344,8,5,1417175901,0.8794098,0.7278595,0.05354309,32.81647,-0.2593536,-17.29025,179.0108,176.7325,20,-1.782078,1.288992,-0.170964,0.5160057,1.269102,-0.1378624,-1.627011,0.9495708,-0.1362327,0.08729095,0.4744971,0.3763203,0.0.0.0,10.205.173.28,1,0
2014-11-28 12:58:21.710,354,11.8,56.17323,10.18867,58.34979,1.33,255.2344,8,5,1417175901,0.9353943,0.5548248,-0.4470978,33.05272,0.6208954,-17.12499,177.1538,174.8755,20,-1.404247,1.507053,-0.4245979,0.5693865,1.317528,-0.1583175,-1.939818,1.257706,-0.3772629,-0.2686137,0.5910003,0.1484059,0.0.0.0,10.205.173.28,1,0
2014-11-28 12:58:21.743,355,11.83333,56.17323,10.18867,58.34979,1.33,255.2344,8,5,1417175901,0.8550415,0.3347321,-0.1496429,33.30585,1.518097,-16.57967,175.4585,173.1802,20,-0.8697578,1.438409,-0.007170828,0.6147326,1.371343,-0.1822032,-1.149156,1.527009,-0.2777995,0.04819588,0.2859969,-0.2201244,0.0.0.0,10.205.173.28,1,0
2014-11-28 12:58:21.776,356,11.86667,56.17323,10.18867,58.34979,1.33,255.2344,8,5,1417175901,0.5826416,0.3591156,-0.1095581,34.04834,3.041626,-14.43141,173.4368,171.1585,20,-0.6544591,1.608286,-0.04119883,0.6443245,1.423886,-0.1886851,-0.7946306,1.558162,0.06864783,-0.2628238,0.1543514,0.01963931,0.0.0.0,10.205.173.28,1,0
2014-11-28 12:58:21.810,357,11.9,56.17323,10.18867,58.34979,1.33,255.2344,8,5,1417175901,0.3428497,0.3493195,-0.06971741,34.43646,3.397125,-13.02678,174.0871,171.8089,20,-0.5363505,1.25566,-0.495169,0.6668489,1.478873,-0.192149,-0.6603441,1.473807,-0.1701211,-0.6092268,0.2030436,-0.03524661,0.0.0.0,10.205.173.28,1,0
2014-11-28 12:58:21.843,358,11.93333,56.17323,10.18867,58.34979,1.33,255.2344,8,5,1417175901,0.7401428,0.1977081,-0.1612244,34.77397,3.634125,-12.00223,173.6906,171.4123,20,-0.6566445,0.911677,-0.47317,0.6852763,1.523109,-0.2072089,-0.6132538,1.092485,-0.5904474,-0.5457642,0.1074878,0.02011489,0.0.0.0,10.205.173.28,1,0
2014-11-28 12:58:21.876,359,11.96667,56.17323,10.18867,58.34979,1.33,255.2344,8,5,1417175901,0.7712097,0.2865448,0.03268433,35.39835,4.192764,-9.374748,176.293,174.0147,20,-0.5698233,1.17272,-0.423016,0.7066915,1.557919,-0.2236062,-0.6067608,0.9609468,-0.3946417,-0.2348805,-0.02403932,-0.148668,0.0.0.0,10.205.173.28,1,0
2014-11-28 12:58:21.910,360,12,56.17323,10.18867,58.34979,1.33,255.2344,8,5,1417175901,0.8380585,0.3193512,-0.03231812,35.51648,4.412857,-8.23452,177.4501,175.1718,20,-1.005004,1.136589,-0.5811883,0.7470762,1.633687,-0.2461938,-1.020518,1.371999,-0.5201625,-0.1298712,0.07563692,-0.09327239,0.0.0.0,10.205.173.28,1,0
2014-11-28 12:58:21.943,361,12.03333,56.17323,10.18867,58.34979,1.33,255.2344,8,5,1417175901,0.9317932,0.5647736,-0.2214355,35.51648,5.022263,-7.011673,178.319,176.0407,20,-0.4795823,0.242394,-0.4034258,0.779233,1.67003,-0.2619769,-0.7552648,0.4767464,-0.5633633,-0.09833512,0.2406433,-0.3233825,0.0.0.0,10.205.173.28,1,0
2014-11-28 12:58:21.976,362,12.06667,56.17323,10.18867,58.34979,1.33,255.2344,8,5,1417175901,1.06572,0.6072235,-0.2505341,35.71898,5.733246,-5.821869,175.6407,173.3624,20,-0.02940875,0.2422699,-0.3427616,0.7925581,1.681461,-0.27154,-0.1580884,0.2569717,-0.2950898,-0.006126286,0.3874853,-0.3216482,0.0.0.0,10.205.173.28,1,0
2014-11-28 12:58:22.010,363,12.1,56.17323,10.18867,58.34979,1.33,255.2344,8,5,1417175901,1.336548,0.2521515,-0.2842102,36.51212,6.528854,-4.15284,177.1072,174.8289,20,-0.03343119,0.04947461,-0.06897427,0.7949719,1.689023,-0.2802733,-0.03464108,0.1515001,-0.1906268,0.3498056,0.1162649,-0.3131325,0.0.0.0,10.205.173.28,1,0
2014-11-28 12:58:22.043,364,12.13333,56.17323,10.18867,58.34979,1.33,255.2344,8,5,1417175901,1.365601,0.2393494,-0.1029205,36.68088,7.036697,-3.557938,178.0937,175.8154,20,0.09454595,-0.5090752,0.1522007,0.7958192,1.687119,-0.2798989,0.0550842,-0.2642783,0.09304131,0.3704542,-0.02703674,-0.3862474,0.0.0.0,10.205.173.28,1,0
2014-11-28 12:58:22.076,365,12.16667,56.17323,10.18867,58.34979,1.33,255.2344,8,5,1417175901,1.408646,0.3663177,0.3773499,37.30524,6.884354,-3.706657,178.2914,176.0131,20,-0.3146482,-1.578385,0.7175869,0.7968798,1.66365,-0.2707704,-0.2708947,-1.18728,0.4920363,0.6144382,0.01957446,0.2083113,0.0.0.0,10.205.173.28,1,0
2014-11-28 12:58:22.110,366,12.2,56.17323,10.18867,58.34979,1.33,255.2344,8,5,1417175901,0.7816315,0.3934326,0.2140045,37.77774,5.834824,-5.160873,176.14,173.8617,20,-0.6875382,-2.200866,0.867709,0.8089949,1.610428,-0.2443229,-0.5813639,-2.055576,0.8932965,-0.06759238,0.03269776,0.3871378,0.0.0.0,10.205.173.28,1,0
2014-11-28 12:58:22.143,367,12.23333,56.17323,10.18867,58.34979,1.33,255.2344,8,5,1417175901,0.9836426,0.6978302,0.1424103,37.98026,5.12384,-6.615074,173.1441,170.8658,20,-0.7417607,-2.733919,0.5166381,0.8334144,1.540611,-0.2183414,-0.7946233,-2.625478,0.6827073,-0.1256394,0.3257324,0.193634,0.0.0.0,10.205.173.28,1,0
2014-11-28 12:58:22.177,368,12.26667,56.17323,10.18867,58.34979,1.33,255.2344,8,5,1417175901,1.284027,0.602829,-0.1254425,38.09839,4.091232,-8.71376,168.9655,166.6872,20,-0.6818204,-2.246989,0.56833,0.8607191,1.460657,-0.2032294,-0.8418952,-2.553584,0.5494049,0.2633768,0.4501595,0.180058,0.0.0.0,10.205.173.28,1,0
2014-11-28 12:58:22.209,369,12.3,56.17322,10.18865,57.0564,1.32,243.9844,6,5,1417175902,1.192047,0.6113892,-0.118988,37.69339,3.481812,-11.22558,164.8274,162.5491,20,0.5112476,-2.059261,0.7764366,0.8778593,1.394915,-0.1854715,0.03477984,-2.093956,0.6978076,0.2873334,0.4404069,-0.1490854,0.0.0.0,10.205.173.28,1,0
2014-11-28 12:58:22.243,370,12.33333,56.17322,10.18865,57.0564,1.32,243.9844,6,5,1417175902,1.031921,0.4731293,0.07061768,36.56277,2.483078,-15.53861,158.8907,156.6124,20,0.119609,-1.958464,1.19086,0.8646914,1.327759,-0.1546122,0.7145333,-2.048754,0.9700475,0.1934935,0.4460397,0.2613103,0.0.0.0,10.205.173.28,1,0
2014-11-28 12:58:22.276,371,12.36667,56.17322,10.18865,57.0564,1.32,243.9844,6,5,1417175902,0.7771301,0.1882782,-0.1503143,35.48277,1.772095,-17.65384,156.2703,153.992,20,-1.37918,-1.946678,1.230751,0.8800597,1.246339,-0.1062527,-0.6796889,-1.877347,1.306876,0.004634494,0.3157153,0.2987015,0.0.0.0,10.205.173.28,1,0
2014-11-28 12:58:22.310,372,12.4,56.17322,10.18865,57.0564,1.32,243.9844,6,5,1417175902,0.7031708,0.1131439,-0.1641998,34.57153,1.094955,-20.00039,152.1531,149.8748,20,-1.719812,-1.703803,1.172533,0.9327793,1.190174,-0.08329518,-1.638385,-1.93875,1.198361,-0.1701029,0.04383052,0.2151202,0.0.0.0,10.205.173.28,1,0
2014-11-28 12:58:22.347,373,12.43333,56.17322,10.18865,57.0564,1.32,243.9844,6,5,1417175902,0.4379425,0.2843018,-0.1880951,32.31026,0.1808319,-23.80115,143.8501,141.5718,20,-1.534294,-1.378181,1.028131,0.9986943,1.14001,-0.07053797,-1.719127,-1.553527,1.153064,-0.3812011,0.09130945,0.2395756,0.0.0.0,10.205.173.28,1,0
2014-11-28 12:58:22.376,374,12.46667,56.17322,10.18865,57.0564,1.32,243.9844,6,5,1417175902,0.4042358,0.3745422,-0.1481781,31.16275,0.1469879,-25.45364,138.7943,136.516,20,-1.400698,-1.305574,0.8623867,1.059072,1.099464,-0.06225686,-1.482792,-1.333228,0.9910504,-0.4689803,0.2815028,0.269158,0.0.0.0,10.205.173.28,1,0
2014-11-28 12:58:22.410,375,12.5,56.17322,10.18865,57.0564,1.32,243.9844,6,5,1417175902,0.3703003,0.3256683,-0.08183289,30.20091,0.4347687,-26.79219,133.9252,131.6469,20,-1.502418,-1.217872,0.6080239,1.113205,1.06106,-0.05905641,-1.473141,-1.306841,0.8157384,-0.4922011,0.3098439,0.4040582,0.0.0.0,10.205.173.28,1,0
