motionUserAccelerationX,motionUserAccelerationY,motionUserAccelerationZ
0.1311314 , 0.6819283 , -0.2449178
0.1167707 , 0.1243265 , 0.1044654
-0.1001942 , -0.293499 , -0.002976145
-0.09097137 , -0.2167165 , -0.05646305
0.009774856 , -0.04662054 , -0.212489
-0.04326145 , -0.05070017 , -0.3058439
0.06996123 , -0.02415922 , -0.3524049
0.1277508 , 0.07934289 , -0.3727331
-0.06162592 , 0.06372121 , -0.1334562
-0.03464016 , 0.1975912 , -0.161473
-0.1355601 , 0.4316364 , -0.4813532
0.1560337 , 0.4589794 , -0.471409
0.4432864 , 0.7709944 , -0.5225796
0.2896528 , 0.5403703 , -0.7481658
0.01611093 , 0.2413995 , -0.7544697
0.429379 , 0.4696324 , -0.04516028
0.1000056 , 0.6820505 , 0.7756906
0.3118584 , 0.3937906 , -0.05703008
0.05108491 , 0.4352089 , 0.3459456
0.1492286 , 0.1872216 , 0.6212523
0.2021082 , -0.005703819 , 0.5454147
0.09774698 , 0.03463269 , 0.6205351
0.06038022 , -0.148553 , 0.7459938
-0.1855959 , -0.4608197 , 0.7855014
-0.2547202 , -0.4963588 , 0.780942
-0.4633553 , -0.662538 , 0.5653095
-0.3666111 , -0.3592847 , -0.07242895
-0.305265 , -0.2537042 , -0.3150184
0.6365038 , 1.78873 , -0.900436
0.7111616 , -0.1354247 , -0.5675955
0.2876063 , -0.6799781 , 0.6060359
-0.8202712 , 0.2747951 , 0.5669804
-1.07591 , 0.858868 , -0.2256023
-0.02783958 , -0.7347067 , 0.9308426
0.1900693 , 0.1377957 , 0.7934577
0.02136861 , 0.5546996 , -0.09084449
0.05183611 , 0.3780118 , 0.1462804
0.1865712 , -0.08115315 , 0.01932488
-0.07097679 , -0.2841116 , 0.2622969
-0.06146317 , 0.01940443 , 0.05487639
-0.2074239 , -0.09868903 , 0.0009965186
-0.1149497 , -0.173367 , -0.1323892
-0.2617606 , -0.1752763 , -0.03703209
0.06376953 , 0.1042235 , 0.001223235
0.06953782 , 0.165959 , -0.4284526
-0.2328162 , 0.1567159 , -0.5603576
0.4302427 , 0.2736729 , -0.1100055
0.04395509 , 0.7466545 , -0.3884923
0.1124916 , 0.761665 , -0.4470554
0.02288317 , 0.4473913 , -0.8583949
-0.233983 , 0.2909438 , -0.7652504
-0.33507 , 0.3457579 , -0.04879751
-0.3430073 , 0.6102467 , 0.7774328
-0.4479551 , 0.4140604 , -0.2050813
-0.02348433 , 0.2933795 , 0.4808163
0.3402987 , 0.1210837 , 0.485506
0.08834544 , -0.1132505 , 0.436035
0.09706152 , -0.1566659 , 0.6764569
0.02372797 , -0.4582715 , 0.8280651
-0.02347369 , -0.5835525 , 0.9548887
-0.1202874 , -0.6545987 , 0.9287853
-0.2178498 , -0.6086501 , 0.4289518
-0.6122544 , -0.09292906 , -0.7551598
-0.5308001 , 0.944702 , -2.068499
0.06216422 , 0.4341609 , -0.3568465
0.1875961 , -0.8203332 , -0.1459541
0.03046008 , 0.04922393 , 0.6379793
-0.5611298 , 0.3216534 , 0.7391961
-0.1907375 , -1.089747 , 0.9903432
0.1405883 , -0.9966031 , 1.099285
0.02111757 , 0.746216 , -0.09194468
0.1606137 , 0.2812566 , 0.1513662
0.1116059 , 0.02455898 , 0.1583031
-0.1388524 , -0.2934352 , 0.07609796
-0.0007972519 , -0.06200426 , -0.001973422
0.03671849 , 0.0286222 , -0.03008253
-0.09145973 , -0.1788434 , -0.1359575
-0.2464494 , -0.08920792 , -0.1549468
-0.07846576 , -0.06701095 , -0.03963742
0.1941986 , 0.2485777 , -0.02225147
-0.3436148 , 0.2044812 , -0.6293775
0.1306466 , 0.2560348 , -0.2895644
0.5003996 , 0.3386439 , -0.108777
0.05496377 , 0.7684712 , -0.7046581
0.337784 , 0.6248831 , -0.5773745
-0.06555235 , 0.2942177 , -0.7179953
-0.1848486 , 0.2747833 , -0.3193189
-0.5699093 , 0.7240217 , 1.007288
-0.5520514 , 0.2857055 , -0.1138266
-0.2619545 , 0.3985968 , -0.02323093
0.2544007 , 0.233304 , 0.5842305
0.01916109 , -0.02766663 , 0.4364887
0.07851748 , -0.1270632 , 0.706376
0.07292241 , -0.2388804 , 0.7432491
-0.0005024585 , -0.5382695 , 0.9354526
-0.05696306 , -0.6656671 , 0.8389584
-0.08879081 , -0.6871057 , 0.6693363
-0.7094803 , -0.1671341 , -0.2959051
-0.4607095 , 0.495536 , -1.455388
-0.07425544 , 1.163072 , -0.9079869
0.3681566 , -0.5002354 , -0.3322991
-0.1331563 , 0.1868296 , 0.4750497
-0.7625613 , 0.8471903 , 0.4439843
-0.1450143 , -0.732703 , 1.311488
0.5292586 , -0.5854898 , 1.516987
0.1902781 , 0.0902051 , 1.603465
0.09677658 , 0.5545087 , 0.2961277
0.3926581 , 0.2546835 , 0.159025
0.05267744 , -0.1591251 , 0.1294579
-0.1297964 , -0.2785103 , 0.03428511
0.02445399 , -0.06261393 , -0.07400321
0.01823217 , -0.002263621 , -0.02206
-0.1708123 , -0.2347246 , -0.02025176
-0.3192742 , -0.1591521 , 0.02394764
-0.271945 , -0.07777197 , 0.02688444
0.06732059 , 0.2095723 , -0.2890057
-0.07680642 , 0.3535796 , -0.3470396
0.1021793 , 0.388845 , -0.2731811
0.4276754 , 0.5613835 , -0.2397818
0.3699754 , 0.6906009 , -0.5044392
0.076448 , 0.3734199 , -0.7352071
-0.1763193 , 0.2166402 , -0.5122032
0.1121755 , 0.5607131 , 0.9675821
-0.2924401 , 0.3958813 , 0.1792717
-0.2649561 , 0.4882205 , 0.2913635
0.4849793 , 0.2381204 , 0.7240186
0.5112262 , 0.07776067 , 0.6045309
0.04701623 , -0.1154895 , 0.6343468
0.1050967 , -0.2227269 , 0.8923066
0.03396035 , -0.4122591 , 0.9558312
-0.2098099 , -0.6354063 , 0.860441
-0.404195 , -0.5883319 , 0.6233328
-0.3792441 , -0.3231623 , 0.2720531
-0.2533678 , 0.2985545 , -0.9049074
-0.0843124 , 1.35569 , -1.673874
0.5420284 , 0.2072717 , -0.1766396
0.06801689 , 0.2640596 , 0.3019263
-0.9589257 , 1.175114 , 0.08127695
-0.9262576 , 1.235871 , 0.04847069
0.4886537 , -0.6382745 , 1.591093
0.08655325 , 0.1882744 , 1.10142
-0.06176524 , 0.5843863 , -0.01757419
0.331357 , 0.2300781 , 0.2152093
0.07636823 , -0.1513191 , 0.2118724
-0.1367352 , -0.2447057 , 0.15924
0.0509437 , -0.1179317 , 0.04042548
0.02484584 , -0.09667162 , 0.04205815
-0.04124429 , -0.1345742 , -0.1604274
-0.2306626 , 0.005471657 , -0.02030047
0.3867574 , 0.1012364 , 0.03050422
0.1675739 , 0.1621977 , -0.03256788
-0.4960279 , 0.2517732 , -0.566993
0.5828438 , 0.365665 , -0.149435
0.1452918 , 0.4812378 , -0.2934548
0.262365 , 0.6576325 , -0.4287314
0.2324619 , 0.3643965 , -0.607475
-0.04138356 , 0.3582092 , -0.4956892
-0.04093397 , 0.5513072 , 0.7210556
-0.4915973 , 0.3499649 , -0.08424667
-0.4985059 , 0.3845744 , -0.01937589
0.4333983 , 0.3193571 , 0.5910957
0.2791125 , 0.01212879 , 0.5188015
0.1040473 , -0.03871351 , 0.5534038
0.1347588 , -0.2601147 , 0.8385309
0.096646 , -0.3873183 , 0.9842629
-0.0234155 , -0.5893839 , 0.9185443
-0.1128539 , -0.7475011 , 0.7057921
-0.2854143 , -0.5185145 , 0.3338184
-0.4157088 , 0.1507068 , -0.7901464
0.06170501 , 1.51976 , -0.9862049
0.1947301 , -0.3958446 , -0.2936718
-0.06635499 , -0.4598162 , 0.1062648
-1.046645 , 0.9899939 , 0.3957521
-0.2084333 , 0.3728704 , 0.9095722
0.06135267 , -0.7774533 , 1.252998
0.09659939 , 0.1842475 , 1.259199
-0.04785667 , 0.7374092 , -0.08303336
0.2425164 , 0.3079437 , 0.2747887
0.09906471 , -0.1985058 , 0.2034402
-0.04704656 , -0.2117532 , 0.1823806
0.04238863 , 0.02827166 , 0.0008286304
0.07593049 , -0.1644081 , -0.1264959
0.02302395 , -0.1275812 , 0.0655701
-0.05228893 , -0.1156513 , 0.1215742
0.04071862 , 0.1940644 , -0.06831503
-0.1898068 , 0.3077768 , -0.4955207
0.1258589 , 0.3108097 , -0.2494476
0.4768811 , 0.3666603 , -0.01097135
-0.009468208 , 0.5438919 , -0.5397028
0.4059061 , 0.5450254 , -0.4993881
0.105446 , 0.4198395 , -0.6273418
-0.319646 , 0.3214061 , 0.1158778
-0.1373934 , 0.4256754 , 1.068742
-0.5377905 , 0.3055249 , 0.07298667
-0.4404378 , 0.3505737 , 0.1895235
0.2812883 , 0.2900595 , 0.5368283
0.2672341 , -0.06248701 , 0.3879136
0.1370724 , -0.006907951 , 0.6197964
0.1149161 , -0.3543952 , 0.8176814
0.08251905 , -0.4716301 , 0.9990271
0.005309188 , -0.6300495 , 1.005853
0.01950619 , -0.6690837 , 0.7515927
-0.523756 , 0.08055188 , -0.7735864
-0.7415013 , 1.053854 , -2.249863
0.08014487 , 1.948723 , -1.184233
-0.2618653 , -0.5342175 , 0.1815346
0.2121621 , 0.1086738 , 0.3191099
-0.1297268 , 0.3442661 , 0.7558899
-0.1192634 , -0.8308311 , 1.001498
0.2508282 , -0.4822132 , 1.487619
0.1233597 , 0.5073135 , 0.8032448
0.06901512 , 0.3468778 , 0.2018482
0.1258087 , -0.009454012 , 0.2911341
-0.06810599 , -0.2306553 , 0.2216856
0.09548275 , 0.02006731 , 0.004060444
0.06650461 , -0.0894058 , 0.0251356
0.07615847 , -0.1607943 , 0.005623663
0.006700335 , -0.05210091 , -0.299051
0.00801158 , -0.0275657 , 0.0196506
0.2271798 , 0.1538466 , 0.06365306
-0.2761383 , 0.1212345 , -0.5835777
0.1538572 , 0.3392659 , -0.141649
0.3985363 , 0.3820507 , -0.1742358
0.2729927 , 0.6142086 , -0.3535297
0.1433701 , 0.4091379 , -0.6441501
-0.01554928 , 0.2995498 , -0.5880459
-0.4339707 , 0.3554902 , 0.3911722
-0.4893674 , 0.5742794 , 0.5880194
-0.4953901 , 0.410833 , 0.1376154
-0.02265844 , 0.3992324 , 0.4005953
0.2928946 , 0.0737227 , 0.6889693
0.009881395 , -0.06906051 , 0.5351012
0.1723603 , -0.1804993 , 0.7626728
0.121453 , -0.4445841 , 0.8559771
0.08299573 , -0.6331934 , 0.9990407
0.0582958 , -0.7450209 , 0.9240793
0.1293264 , -0.6953478 , 0.680444
-0.6646186 , 0.09098344 , -0.8379066
-0.07921435 , 1.886976 , -1.060551
0.0990081 , -0.1168065 , -0.2839836
-0.1184002 , -1.00718 , -0.07994965
0.04158502 , 0.3250228 , 0.5008749
-0.8590928 , 1.639802 , -0.307927
-0.01637879 , -0.6356677 , 1.31075
0.3648804 , -0.3869875 , 1.661734
0.09457304 , 0.5680376 , 0.3884313
0.1475717 , 0.6708297 , 0.1259897
-0.1441756 , -0.2958459 , 0.1220446
0.01062749 , -0.1466096 , 0.1509264
0.04622822 , -0.07052526 , 0.05969229
-0.0414087 , -0.1090292 , -0.01485983
0.02006206 , -0.1859864 , -0.04037842
0.02885541 , -0.1628014 , -0.07718775
-0.0129306 , 0.1138529 , -0.07299417
0.3199133 , 0.182916 , -0.2512554
-0.1507444 , 0.3108453 , -0.498808
0.09207182 , 0.302871 , -0.2110671
0.4630929 , 0.5330513 , -0.1851308
0.2341703 , 0.6369046 , -0.465334
0.3673584 , 0.3763461 , -0.6525989
-0.3270635 , 0.2504509 , -0.5768585
-0.6509953 , 0.2925673 , -0.2079499
-0.4702524 , 0.5415629 , 0.9935163
-0.4543857 , 0.3869629 , -0.1713669
-0.3537319 , 0.3561933 , 0.06846049
0.337687 , 0.2181298 , 0.5026253
0.1761039 , 0.05399778 , 0.4253545
0.1018612 , -0.2250216 , 0.7460141
0.05969063 , -0.5055084 , 0.8389376
0.07267161 , -0.6766669 , 0.9695957
0.09474505 , -0.6971039 , 0.8918415
-0.1451305 , -0.4558673 , 0.207995
-0.9407909 , 0.4684007 , -1.517939
-1.110278 , 1.01905 , -2.66257
-0.1804102 , -0.7290739 , -0.09095924
-0.3085477 , -0.8129033 , 0.3982574
-0.5768384 , 0.6566207 , -0.01702191
-0.4050413 , 1.482092 , -0.04622304
0.0548185 , -0.8495628 , 1.33779
0.1359628 , -0.481823 , 1.539925
0.1628538 , 0.7573841 , 0.02590488
0.1096634 , 0.2136817 , 0.3133022
0.05489002 , -0.05137514 , 0.2349214
-0.09447979 , -0.1945697 , 0.0850385
-0.1168193 , -0.08414894 , -0.009191399
-0.0257097 , -0.05563021 , -0.07991531
0.06552001 , -0.1495717 , -0.1093038
-0.07253698 , 0.001711249 , -0.2566144
0.03392103 , 0.01981281 , -0.1563845
0.1921415 , 0.1388202 , -0.1240091
-0.1422678 , 0.1830624 , -0.4891469
0.0560376 , 0.3953638 , -0.177678
0.1749047 , 0.3839076 , -0.2086356
0.4686309 , 0.5860476 , -0.5341278
0.4583223 , 0.5154686 , -0.5534733
-0.03974336 , 0.2670403 , -0.5094545
-0.3552161 , 0.5140221 , 0.7913864
-0.4349261 , 0.6048105 , 1.066521
-0.5491261 , 0.3732706 , -0.2896904
0.1248027 , 0.2860342 , 0.5026799
0.4327975 , 0.06200316 , 0.4185512
0.1077543 , -0.022766 , 0.4127609
0.1219621 , -0.1872913 , 0.6546865
0.08931468 , -0.4753956 , 0.8338503
0.05395256 , -0.6787102 , 0.9799975
0.08881771 , -0.7051147 , 0.8272249
-0.0001801029 , -0.723743 , 0.5633435
-0.5922242 , 0.04625574 , -0.9727712
-0.4505358 , 1.60962 , -1.898429
0.02839125 , -0.1922737 , -0.3938495
-0.3449501 , -0.6149253 , 0.123291
-0.1087539 , 0.1300753 , 0.4965338
-1.281213 , 1.767968 , -0.679361
0.1914466 , -0.7734056 , 1.40884
0.1010936 , -0.4956805 , 1.479983
-0.05536261 , 0.39215 , 0.5957437
0.1413488 , 0.2430058 , 0.2537767
0.1535943 , -0.1569354 , 0.1460597
0.08593383 , -0.1309896 , 0.1396191
0.09144424 , -0.08466395 , -0.08051148
0.04224567 , -0.08381893 , -0.04552869
0.0157808 , -0.06273336 , -0.1215288
-0.1978669 , -0.09765501 , -0.1231282
0.2947268 , 0.1107159 , -0.04411249
0.0379389 , 0.1897445 , -0.2841163
-0.3581572 , 0.2575706 , -0.6654787
0.4993193 , 0.318639 , -0.194451
0.3624004 , 0.4056331 , -0.2244364
0.3076212 , 0.6819359 , -0.455052
0.1149682 , 0.4418242 , -0.4576693
-0.2464029 , 0.3919314 , -0.6147497
-0.3551021 , 0.4188099 , 0.779681
-0.413233 , 0.4368369 , 0.3055031
-0.4993214 , 0.3868074 , -0.1029387
-0.039818 , 0.2736598 , 0.3862203
0.4302246 , 0.07438012 , 0.4063465
0.080585 , -0.05869778 , 0.3942524
0.08455077 , -0.3930508 , 0.7526825
0.04166079 , -0.6553009 , 0.9540774
0.01536331 , -0.6935913 , 0.9507248
0.04077799 , -0.8531044 , 0.7198544
-0.1766141 , -0.570164 , 0.2271819
-0.5205674 , -0.08186296 , -0.8743904
0.2503282 , 1.823531 , -0.4220796
-0.1491846 , -0.5912715 , -0.1058227
-0.09884537 , -0.0838301 , 0.02085551
-0.6451477 , 1.328849 , 0.396929
-0.126032 , -0.1925874 , 1.514269
-0.07406341 , -0.8465481 , 1.078476
0.06833161 , 0.3339546 , 1.467518
0.3065929 , 0.696371 , -0.003116271
0.2308875 , 0.2344383 , 0.160393
-0.08928735 , -0.2880974 , 0.1334706
-0.1495389 , -0.1571911 , -0.003808107
0.01419752 , 0.02867443 , -0.04977374
-0.0772427 , -0.1947162 , -0.03554558
-0.03134468 , -0.1536904 , -0.294888
-0.2430298 , -0.03972175 , -0.1938233
0.3941457 , 0.1535447 , -0.1609106
0.1258166 , 0.02310225 , -0.4830211
-0.3489427 , 0.3307458 , -0.4975064
0.3165154 , 0.4520982 , -0.1596522
-0.02700802 , 0.6684369 , -0.6490348
0.1784878 , 0.6728511 , -0.5955638
-0.06730197 , 0.4638808 , -0.7001245
-0.4762858 , 0.1243897 , -0.2346619
-0.3357725 , 0.5196758 , 1.060734
-0.5721982 , 0.4867507 , 0.1673948
-0.4063094 , 0.4475888 , -0.02741149
0.3063323 , 0.2809034 , 0.4114299
0.4248027 , -0.09374718 , 0.2744329
0.2491653 , -0.1852169 , 0.7433121
0.1235846 , -0.442157 , 0.80302
0.022103 , -0.5954269 , 0.9712342
0.04313118 , -0.7854597 , 0.9143384
0.07212707 , -0.7496136 , 0.7449822
-0.3372423 , -0.420709 , -0.1236987
-1.073402 , 0.8653691 , -1.736636
-0.06248362 , 0.6581339 , -0.5725337
-0.3437052 , -0.3312985 , -0.09411259
-0.1531376 , -0.04689629 , -0.2952961
-0.4417027 , 0.8894208 , 0.2122578
-0.4840706 , -0.2971172 , 1.542091
0.3735171 , -0.2483397 , 1.693977
0.3096969 , 0.195006 , 1.790745
0.2416557 , 0.2385136 , 0.1429157
0.06194036 , -0.1171938 , 0.2579361
-0.07445098 , -0.2574442 , 0.1325988
-0.04109645 , -0.05663161 , -0.07178938
0.02182951 , -0.04613781 , -0.139794
-0.0006586027 , -0.1383502 , -0.05546303
-0.1470772 , -0.02351306 , -0.4370555
-0.1304098 , -0.002112669 , -0.2343004
0.3163397 , 0.1123671 , -0.1123121
-0.2723908 , 0.1853562 , -0.5216055
-0.02489643 , 0.3988481 , -0.1269653
0.3407413 , 0.4719876 , -0.06179629
0.2913702 , 0.6606472 , -0.617156
0.4340922 , 0.5406454 , -0.7035934
0.05737948 , 0.6075608 , -0.7150826
-0.5703476 , 0.1828736 , -0.5984008
-0.3979176 , 0.6712831 , 1.159664
-0.3612854 , 0.3835681 , 0.04787877
-0.4185618 , 0.3438982 , -0.1745716
0.348823 , 0.2317648 , 0.6087356
0.3050433 , -0.0960346 , 0.4606767
0.1879279 , -0.3057186 , 0.6374975
0.03102446 , -0.6205859 , 0.7979743
0.01012415 , -0.6606418 , 0.844079
-0.01418546 , -0.7484144 , 0.816007
-0.1254561 , -0.6787589 , 0.4087176
-0.7379676 , 0.1240606 , -0.8899211
-0.1492034 , 1.866661 , -1.925009
0.09239322 , 0.6432427 , -0.3647469
-0.3608594 , -0.3050751 , -0.1546463
0.2278492 , 0.7565337 , -0.4869933
-0.7217992 , 0.9988894 , 0.3673149
-1.034664 , -1.400854 , 0.6746272
0.07024761 , 0.3073641 , 1.943158
-0.1483515 , 1.104296 , -0.5011092
0.2857496 , 0.4372768 , 0.2535516
0.02973304 , -0.2313159 , 0.1208636
-0.07948071 , -0.1067922 , 0.01766456
0.03689077 , 0.04835688 , -0.06617867
-0.1680786 , -0.1334393 , -0.2025522
-0.1044615 , -0.1932344 , -0.2082974
-0.1132045 , -0.1890064 , -0.2920668
-0.09837632 , 0.08698632 , -0.1815891
0.01897925 , 0.1052784 , -0.6021583
-0.1409966 , 0.2102088 , -0.6647213
0.4352319 , 0.4792452 , -0.2028368
-0.004643032 , 0.6332062 , -0.6434326
0.1206016 , 0.690453 , -0.6678458
0.226703 , 0.484984 , -0.6607354
-0.4917875 , 0.2459134 , -0.7525668
-0.5389354 , 0.4088947 , 0.5956897
-0.5208892 , 0.6247866 , 0.7866715
-0.4799266 , 0.4435663 , -0.2792521
-0.0059756 , 0.3303557 , 0.2344623
0.3120674 , 0.06580222 , 0.4567223
0.01819935 , -0.226996 , 0.5266243
0.03942546 , -0.3811775 , 0.6806473
-0.02993732 , -0.600106 , 0.8023492
-0.08918183 , -0.804116 , 0.8958812
0.0002400923 , -0.8403047 , 0.7489886
-0.05324882 , -0.7481786 , 0.447161
-0.7544869 , 0.4648746 , -1.60298
0.02410243 , 2.191397 , -1.340633
-0.0539433 , -0.05185016 , -0.3688045
-0.6996809 , -0.5951968 , 0.2561902
-0.5186077 , 0.5764511 , 0.2363789
-0.2192193 , -0.6805076 , 1.63093
-0.04240867 , -0.5456067 , 1.114316
0.04476868 , 0.07885977 , 1.534336
0.1978424 , 0.5187376 , 0.06680255
0.08508128 , -0.006476647 , 0.1358078
-0.08373597 , -0.1605533 , 0.03500052
-0.1513014 , -0.06401044 , -0.09433283
-0.05186752 , -0.08920851 , -0.1376519
-0.06847604 , -0.1403805 , -0.0392961
-0.05273933 , -0.1890545 , -0.3245001
-0.2583189 , 0.02509981 , -0.2542826
0.09862583 , 0.1478664 , -0.2215078
-0.01629068 , 0.1906494 , -0.6991696
-0.1848314 , 0.281011 , -0.3146056
0.05018366 , 0.4542675 , -0.1624406
0.001406098 , 0.6355992 , -0.656516
0.4596775 , 0.6291528 , -0.5364534
0.2216913 , 0.5867466 , -0.8106383
-0.3277349 , 0.2779956 , -0.6806843
-0.5157494 , 0.310415 , 0.2696068
-0.4326809 , 0.6269832 , 0.9078273
-0.3096086 , 0.3381127 , -0.1228471
0.3153515 , 0.2709124 , 0.4230289
0.3432567 , 0.1209118 , 0.4577158
0.06920201 , -0.2221441 , 0.5096042
0.01160135 , -0.5424098 , 0.6572008
-0.02477168 , -0.5818121 , 0.7545439
-0.05757781 , -0.6980385 , 0.8632492
-0.03613062 , -0.763342 , 0.686686
-0.267111 , -0.6460891 , 0.3435915
-0.6770911 , 0.07988236 , -1.141359
0.1785969 , 2.011408 , -1.16057
-0.08869906 , -0.152857 , -0.3511612
-0.2444849 , -0.4531861 , 0.5184593
-0.9543235 , 0.739178 , 0.1790651
-1.161243 , 1.581529 , -0.7197668
-0.1464158 , -0.8744244 , 1.144388
-0.04921785 , -0.3196868 , 1.378355
-0.03197491 , 0.405774 , 0.2622368
0.1287978 , 0.3188073 , 0.1434161
0.1737227 , 0.01919932 , 0.04031288
-0.2245896 , -0.2131308 , -0.001340899
-0.06527217 , -0.112739 , -0.1423016
0.07521905 , -0.07660963 , -0.05876666
0.05317403 , -0.1326018 , -0.3124225
0.05883457 , 0.1011878 , -0.3138331
0.5482181 , 0.1623998 , -0.2443877
0.4502458 , 0.1742135 , -0.3160857
-0.1774982 , 0.3678866 , -0.3217346
0.3153592 , 0.3930665 , -0.2187974
0.1345202 , 0.5277211 , -0.3982095
0.5766218 , 0.6492593 , -0.6063207
0.08510491 , 0.5609543 , -0.7528505
-0.1075718 , 0.2964985 , -0.7297191
-0.1474036 , 0.6166642 , 0.9849333
-0.1173604 , 0.4527696 , -0.09985151
-0.3028301 , 0.4627981 , -0.2200056
0.5593218 , 0.3521172 , 0.4287675
0.3324632 , 0.1404034 , 0.4103748
0.03139641 , -0.05854633 , 0.4585354
-0.07949626 , -0.4961422 , 0.7195684
-0.1229531 , -0.6619479 , 0.8489144
-0.2481129 , -0.6769491 , 0.9758424
-0.3449946 , -0.6904163 , 0.8506011
-0.2209933 , -0.3941814 , 0.1877848
-0.4741049 , 0.2251682 , -1.049791
0.1041369 , 1.550446 , -2.225098
-0.0831942 , 0.03126065 , -0.2779485
-0.2424288 , 0.1379283 , 0.3332254
-0.6019072 , 0.523019 , 0.9064509
-0.7226818 , -1.016505 , 0.6025795
0.391568 , -0.6733645 , 1.612957
-0.1359672 , 0.7586055 , -0.1243634
0.3561638 , 0.5398526 , 0.1671457
0.1433284 , -0.0794504 , 0.0420456
-0.2400617 , -0.3572856 , 0.1348571
-0.08071681 , -0.2290599 , -0.1169055
0.02037848 , 0.003193317 , -0.09905785
-0.1577823 , -0.1807775 , -0.2962127
-0.2021491 , -0.2338599 , 0.1391496
-0.2896519 , -0.02184215 , -0.001696902
0.1974282 , 0.2454638 , -0.4318883
-0.149369 , 0.2743646 , -0.5543759
-0.3884922 , 0.347312 , -0.5511997
0.7304994 , 0.5283376 , -0.04587426
0.2035126 , 0.7885628 , -0.4923235
0.2187942 , 0.4816521 , -0.6519929
-0.1683962 , 0.2901202 , -0.6448754
-0.2911328 , 0.2340183 , 0.2761959
-0.2205463 , 0.6549008 , 0.9558392
-0.4101612 , 0.3840746 , -0.003267899
0.2591117 , 0.2803854 , 0.6131216
0.4701103 , 0.2383815 , 0.3411434
0.05431555 , -0.1467738 , 0.5266818
0.0649618 , -0.3823262 , 0.8191138
0.0155614 , -0.4652166 , 0.8930411
-0.04955592 , -0.6347333 , 0.9792559
-0.1943606 , -0.7341824 , 0.7754707
-0.2782532 , -0.5992318 , 0.4771602
-0.4938567 , 0.000758476 , -0.5411402
0.3021598 , 1.652615 , -0.9236807
0.3277355 , 0.1911711 , -0.2019327
0.3014888 , -0.7466474 , -0.0426057
0.07757762 , 0.1663663 , 0.6555073
-1.963662 , 1.17566 , -0.339036
-0.001083684 , -0.4923502 , 1.471519
0.08742096 , -0.4861163 , 1.556793
0.01915173 , 0.267554 , 0.651421
0.06919162 , 0.7137982 , 0.07542192
0.336118 , 0.3436151 , 0.1121597
-0.1527967 , -0.3726361 , 0.1062454
-0.08890312 , 0.06011256 , 0.04704955
-0.112951 , -0.04293152 , -0.04351135
-0.1453009 , -0.2262927 , -0.1578488
-0.1875925 , -0.2182868 , 0.05693803
0.1330228 , 0.1685074 , 0.01148887
0.1507756 , 0.2346179 , -0.3338454
-0.1754248 , 0.3648979 , -0.59451
0.2301079 , 0.3244899 , -0.2726637
0.07767215 , 0.5538275 , -0.3524905
0.1888021 , 0.6563009 , -0.7031433
0.168808 , 0.4875403 , -0.7923843
0.05147732 , 0.1907339 , -0.5927067
-0.2546251 , 0.73675 , 1.195781
-0.4963911 , 0.504019 , 0.2767929
-0.5061612 , 0.3370672 , -0.1964198
0.1620682 , 0.2502446 , 0.6828552
0.3451105 , 0.07774581 , 0.5185347
0.1168095 , -0.06330878 , 0.4041629
0.06680551 , -0.3207296 , 0.7981628
0.02977064 , -0.4869051 , 0.9511364
-0.01012943 , -0.7035428 , 1.060909
-0.1053558 , -0.754599 , 0.9227564
-0.2168597 , -0.6828212 , 0.6904839
-0.5941988 , -0.02683317 , -0.5731928
0.2446946 , 1.024363 , -0.3319278
0.03751335 , -0.807367 , -0.1164398
-0.1408167 , -0.7712274 , -0.0007418272
-0.5723029 , 1.146683 , 0.3728473
-0.2129447 , -0.5777546 , 1.780944
0.08354447 , -1.179363 , 1.113601
0.007516256 , 0.169585 , 1.554417
0.07577176 , 0.8333044 , -0.0482673
0.3411169 , 0.244699 , 0.3727224
0.05986979 , -0.1384581 , 0.1443744
-0.2513713 , -0.2386557 , 0.1151661
-0.1054961 , -0.05522022 , -0.04793381
-0.1469016 , -0.1434914 , -0.03314868
-0.08780605 , -0.2743071 , -0.2082111
-0.2540709 , -0.2286395 , 0.1234941
0.1363361 , 0.2146339 , -0.08493007
0.2219882 , 0.1506885 , -0.5375488
-0.08768059 , 0.3120706 , -0.3786885
0.4372395 , 0.4017048 , -0.1530804
0.2655063 , 0.8549622 , -0.427052
0.2825955 , 0.5796137 , -0.5352052
0.04037747 , 0.4874471 , -0.4561335
-0.550373 , 0.3157964 , 0.5897637
-0.4271861 , 0.4968905 , 1.043033
-0.3421654 , 0.4025498 , -0.2193096
-0.07623729 , 0.2969054 , 0.3099109
0.3335827 , 0.2225872 , 0.6502425
-0.02448831 , -0.05942567 , 0.5281889
0.01351877 , -0.2565366 , 0.735688
-0.03712198 , -0.4629298 , 0.8607288
-0.04218216 , -0.6433794 , 0.9979566
-0.04034879 , -0.733058 , 0.9121898
-0.03715933 , -0.8128569 , 0.7435717
-0.7531267 , 0.1728163 , -1.001018
-0.2523605 , 2.225877 , -1.932211
0.351952 , 1.410993 , -0.2910275
-0.5208365 , -0.6616313 , 0.03948046
-0.4394989 , 0.6337193 , 0.1266355
-0.5954895 , 1.251062 , 0.2516841
-0.4950601 , -0.7495799 , 0.7107248
0.2604917 , 0.07737574 , 1.729945
0.03788227 , 0.7805152 , 0.1000648
0.3005576 , 0.4914322 , 0.2581153
-0.1666913 , -0.1880374 , 0.2288645
-0.2454226 , -0.2794595 , 0.1525453
-0.08172958 , -0.06663276 , -0.08285462
0.04978665 , -0.1731997 , -0.02906185
0.05460912 , -0.1546123 , 0.005209109
-0.3059222 , -0.06849104 , -0.04172272
-0.04004161 , 0.05028166 , -0.2294869
0.414019 , 0.07327991 , -0.05770783
-0.3524994 , 0.1875816 , -0.3303829
-0.3065528 , 0.4334636 , -0.3357617
0.4811643 , 0.5238805 , -0.2068773
0.1761824 , 0.6669247 , -0.750432
0.4790903 , 0.4174121 , -0.5331588
-0.0977556 , 0.2142436 , -0.6049502
0.02186203 , 0.7072453 , 1.104865
-0.2317371 , 0.6035247 , 0.4062817
-0.3174407 , 0.3786997 , -0.05918944
0.2387052 , 0.3004779 , 0.5556668
0.4215877 , 0.1375506 , 0.599475
0.2149032 , -0.06176186 , 0.6057074
0.1635474 , -0.1936257 , 0.8593879
0.1346399 , -0.3577508 , 1.127518
-0.08011711 , -0.6059347 , 1.062266
-0.3221638 , -0.5083541 , 0.614214
-0.4463917 , -0.1179205 , 0.03289735
-0.5189067 , 0.02995915 , -0.3935215
0.4234251 , 1.420323 , -1.078777
0.4271283 , -0.01118302 , -0.1176725
0.04071528 , -0.4653481 , 0.007307229
-0.08531228 , 0.4721337 , 0.3955376
-0.9433574 , 0.09307562 , 0.4228589
0.01812592 , -0.3813634 , 0.5417974
0.6492934 , -0.08378096 , 1.573378
0.3380529 , 0.5512086 , 0.1628847
0.489568 , 0.6678668 , 0.3018637
0.1724991 , -0.01479611 , 0.210444
-0.2490275 , -0.4159774 , 0.1504491
0.0216847 , -0.3031165 , 0.01495484
0.1330614 , -0.03812869 , 0.003001131
0.05256643 , -0.1295174 , -0.07747491
-0.04165092 , -0.1235995 , 0.1417916
-0.06094229 , 0.08373417 , -0.08227742
0.2879458 , 0.05830724 , -0.2183768
-0.2504876 , 0.13942 , -0.2731862
0.07290504 , 0.4981499 , -0.2314197
0.5953463 , 0.3725851 , -0.1195444
0.2762905 , 0.7430063 , -0.3044792
0.4532658 , 0.497016 , -0.4954802
-0.02324049 , 0.2102894 , -0.5063458
-0.08814181 , 0.1855027 , -0.2758602
-0.02860494 , 0.7110878 , 0.5958483
-0.2438461 , 0.4346666 , 0.02943861
0.1907895 , 0.2710221 , 0.5622418
0.5712664 , 0.2200728 , 0.5125507
0.1867086 , -0.1087202 , 0.6023153
0.2237366 , -0.1123001 , 0.7921548
0.1158544 , -0.4004506 , 0.9723467
0.05160888 , -0.6350233 , 0.9578856
0.00990341 , -0.6517018 , 0.8660072
-0.05205292 , -0.5466101 , 0.4133801
-0.4405347 , 0.07321668 , -0.7760358
-0.7432815 , 0.9964052 , -1.936267
0.4197805 , -0.06758277 , -0.2561103
-0.1228045 , -0.2191847 , 0.2507138
-0.1762653 , 1.200831 , -0.3416571
-0.2654311 , -0.1687902 , 1.677483
0.4583856 , -0.7953685 , 0.610032
0.3113065 , 0.4012474 , 1.919867
0.1449397 , 0.9827596 , -0.1770369
0.3044134 , 0.07541154 , 0.3458691
0.1867878 , -0.09314014 , 0.3651242
-0.08324251 , -0.2424811 , -0.006239763
0.1789753 , -0.00244573 , 0.004735886
0.06502302 , -0.1218046 , -0.01239238
-0.02377672 , -0.1741382 , -0.1447921
-0.1137282 , -0.06256309 , 0.08487793
0.3649136 , 0.1537133 , -0.09643155
0.4388731 , 0.1974367 , -0.1953124
-0.2523929 , 0.4011191 , -0.6354294
0.4775197 , 0.3960313 , -0.1135655
0.395923 , 0.5949044 , -0.2507562
0.4032511 , 0.5762672 , -0.4638802
0.2002684 , 0.4761522 , -0.5034642
-0.2715166 , 0.198498 , -0.1937835
-0.1666307 , 0.7412058 , 1.179097
-0.2622691 , 0.8119284 , 0.8631862
-0.2316778 , 0.4265461 , -0.02809831
0.3458028 , 0.3349808 , 0.6323156
0.501303 , 0.0866322 , 0.6325872
0.136674 , -0.1407512 , 0.5830086
0.1767331 , -0.3979314 , 0.8349246
0.08077573 , -0.510525 , 0.9151558
0.05033081 , -0.6634666 , 0.8900307
0.08706641 , -0.6790621 , 0.6490334
0.06709206 , -0.6383914 , 0.5615969
-0.6897251 , 1.26063 , -2.097302
0.4611584 , 1.251032 , -0.4658325
-0.1492282 , -0.1577493 , -0.11438
-0.09402646 , 0.4759642 , -0.6115792
-0.2786946 , 1.017652 , 0.6988186
-0.5152484 , -1.027407 , 1.641655
0.2046015 , 0.3842845 , 1.928815
0.2528729 , 0.9163338 , -0.1937458
0.6477662 , 0.5964447 , 0.3241341
0.3077903 , -0.0597451 , 0.2288254
-0.1255453 , -0.1627349 , 0.02611817
-0.05832937 , -0.1287696 , 0.01119188
0.1630193 , -0.03893011 , -0.0651994
-0.04475138 , -0.1536344 , -0.06094581
0.0447806 , -0.2628209 , -0.01769839
-0.2175501 , -0.09863438 , 0.03306168
0.3774419 , 0.1329841 , 0.0747126
0.1079463 , 0.1366461 , -0.5091928
-0.03438516 , 0.4235648 , -0.2817172
0.3507117 , 0.6857875 , -0.3884511
0.2546189 , 0.735298 , -0.4849032
0.4417273 , 0.6115357 , -0.5754597
-0.134864 , 0.3690407 , -0.5268522
-0.4344132 , 0.3101271 , 0.2186047
-0.3185343 , 0.6694584 , 0.7227736
-0.4399017 , 0.3248689 , -0.1655595
0.01389509 , 0.2032766 , 0.6371316
0.4846011 , 0.1151305 , 0.5153995
0.3327394 , -0.08535651 , 0.4889652
0.1800384 , -0.3349323 , 0.7445073
0.1845226 , -0.5302008 , 0.8468255
0.224826 , -0.6584496 , 0.9055626
0.21856 , -0.7217329 , 0.8655201
0.119086 , -0.5450283 , 0.3124427
-0.6268957 , 0.3569286 , -1.358901
-1.014232 , 1.731705 , -2.704807
-0.3329295 , -0.4378936 , -0.06462305
-0.4683692 , -0.2524493 , 0.4079309
-0.2201778 , 1.205387 , -0.2111903
0.2650972 , -0.6008742 , 1.756706
0.2978431 , -0.3225552 , 1.536449
0.1371732 , 0.3416021 , 1.561872
0.3948951 , 0.2877325 , 0.4902878
0.1500283 , 0.03142266 , 0.1890027
0.09711449 , -0.06706124 , 0.2675808
0.0842885 , -0.09148804 , -0.02292481
0.1413627 , -0.07453758 , -0.03665318
0.05203569 , -0.1754391 , -0.0648537
-0.08176211 , -0.2142682 , -0.1605174
-0.05485239 , 0.0007385144 , -0.01401784
0.3734328 , 0.125313 , -0.05816945
0.08367261 , 0.140927 , -0.3026976
-0.08192824 , 0.3588476 , -0.3130268
0.6079937 , 0.3951315 , -0.1444914
0.1652921 , 0.6352289 , -0.6429993
0.560743 , 0.4985843 , -0.5728698
0.2724567 , 0.4021516 , -0.5591453
-0.3857146 , 0.216916 , -0.3961003
-0.2538038 , 0.7011207 , 1.101599
-0.2060004 , 0.4444807 , 0.10187
-0.2900148 , 0.4141331 , -0.09800614
0.4090919 , 0.3582233 , 0.6143725
0.3840959 , -0.05139666 , 0.4916606
0.09475112 , -0.09463045 , 0.5053195
0.1374653 , -0.4780975 , 0.8527242
0.1513869 , -0.4936949 , 0.8778372
0.03152376 , -0.6518425 , 0.8886437
0.08832327 , -0.6587855 , 0.6323319
-0.1609314 , -0.5464071 , 0.3696639
-0.3678643 , 1.531326 , -2.008657
0.1560871 , 1.527912 , -1.245787
-0.03408271 , 0.5766393 , -0.447473
-0.03408271 , 0.5766393 , -0.447473
-0.4603594 , 1.506105 , 0.2684875
-0.153696 , -0.6391578 , 1.691306
0.3348978 , -0.01973688 , 1.920798
0.08934385 , 0.7648575 , 0.2286099
0.439125 , 0.7157466 , 0.05212198
0.1483357 , -0.1280102 , 0.2298384
-0.06382421 , -0.2184793 , 0.0845537
-0.1000072 , -0.1540858 , -0.007446146
0.2013054 , 0.01058805 , -0.0721101
0.1584923 , -0.1121602 , -0.1082441
-0.07808572 , -0.1594277 , -0.258179
-0.1638014 , -0.009391949 , -0.1620505
0.562485 , 0.1125321 , -0.1088877
-0.04592372 , 0.06576598 , -0.3933325
0.2373299 , 0.4044853 , -0.2641337
0.296783 , 0.5106602 , -0.2969983
0.1344574 , 0.6479231 , -0.4857863
0.5365163 , 0.4730619 , -0.6752586
-0.1323657 , 0.2560287 , -0.5385334
-0.580907 , 0.4556082 , 0.2206193
-0.3515038 , 0.7219305 , 1.110736
-0.1923209 , 0.3312948 , 0.023925
-0.04681495 , 0.4382649 , 0.09849537
0.3958636 , 0.2089902 , 0.5231948
0.1193168 , -0.05589132 , 0.4641515
0.1428397 , -0.198696 , 0.7206635
0.07140802 , -0.505556 , 0.795507
0.09469607 , -0.6256049 , 0.9207268
0.04656745 , -0.7055429 , 0.9166299
0.07470405 , -0.7303981 , 0.6442117
-0.3655271 , -0.328998 , -0.379898
-0.57412 , 1.711673 , -2.427875
0.2390608 , 0.7097225 , -0.4288497
-0.4960286 , -0.6100566 , -0.1315176
-0.1941715 , 0.1972151 , -0.3150139
-0.03244141 , -0.7690512 , 1.777322
0.1175692 , -0.6945132 , 0.9590784
0.3216427 , -0.3266216 , 1.642647
0.5038778 , 0.7836426 , 0.05238827
0.4021189 , 0.1541273 , 0.2814296
0.2255926 , 0.01135273 , 0.2394299
-0.1842437 , -0.1638243 , -0.06871142
0.07187331 , -0.02295757 , -0.05399561
0.106639 , -0.07825672 , -0.07202728
0.05391908 , -0.1608272 , -0.1402485
-0.1164794 , -0.07943606 , -0.07523691
-0.00562907 , 0.0575893 , -0.1514329
0.298873 , 0.09641888 , -0.3813305
-0.2474905 , 0.2102449 , -0.4825408
-0.0338513 , 0.2842404 , -0.1765447
0.3316882 , 0.4621096 , -0.07793939
0.2586747 , 0.5077496 , -0.6000499
0.620915 , 0.556931 , -0.4801001
-0.02069137 , 0.4842709 , -0.7016032
-0.2036159 , 0.2419734 , -0.3348453
-0.155242 , 0.5093282 , 0.9924822
-0.2696421 , 0.4261212 , 0.3980429
-0.3074592 , 0.3268107 , -0.2228975
0.3675715 , 0.3279421 , 0.5398489
0.2022511 , -0.08662475 , 0.3877665
0.1591319 , -0.2688759 , 0.6562691
0.09880035 , -0.4258471 , 0.7231854
0.04605895 , -0.5909959 , 0.911144
0.001917065 , -0.658447 , 0.8735548
0.03677477 , -0.6949621 , 0.6182767
-0.3996059 , -0.3081582 , -0.3165069
-0.9789769 , 1.098286 , -2.569208
0.1642133 , 0.5898077 , -0.5185468
-0.5509015 , -0.4703864 , 0.2934492
0.0580417 , 0.2693996 , -0.08452718
-0.2397897 , 1.088768 , 0.2120176
-0.2797585 , -0.6821741 , 0.8788784
0.157115 , -0.1861438 , 1.575799
0.08826447 , 0.2776039 , 1.004827
0.1567905 , 0.2179578 , 0.2298361
0.3734304 , 0.03434492 , 0.1804915
-0.08637553 , -0.145982 , -0.05372119
-0.05609763 , -0.1030282 , -0.09516299
0.1903481 , -0.01208855 , -0.1307036
0.2120281 , -0.09913282 , -0.2658777
-0.1880275 , -0.01268599 , -0.1023431
0.381787 , 0.07553314 , -0.1970732
0.4375774 , 0.1091713 , -0.1807287
0.1116332 , 0.3492304 , -0.3479882
0.4938131 , 0.3048111 , -0.08802737
0.3080029 , 0.4084195 , -0.2181823
0.1750221 , 0.5085483 , -0.5288784
0.223071 , 0.4863401 , -0.7394587
-0.2262185 , 0.2966739 , -0.6908669
-0.3943991 , 0.3705289 , 0.5615851
-0.4447849 , 0.6486381 , 0.3382621
-0.3078516 , 0.4532349 , -0.1746943
0.1895287 , 0.2781198 , 0.4030261
0.2653173 , 0.03095975 , 0.4341998
0.1257717 , -0.09495166 , 0.4488125
0.1349452 , -0.4800193 , 0.7378715
0.09365878 , -0.6113837 , 0.7596666
0.101108 , -0.7559974 , 0.8478032
0.07104456 , -0.7786344 , 0.7419885
-0.1011887 , -0.6745918 , 0.3849598
-0.4247763 , 0.5255041 , -1.518803
0.1276478 , 1.36295 , -1.388398
-0.1571435 , 0.182537 , -0.3555941
-0.4888869 , -0.006227416 , -0.1791015
-0.02798668 , 0.197241 , 1.210379
-0.8707959 , -1.136581 , 0.9890983
-0.6452795 , -1.082512 , 0.2336074
-0.0684675 , 1.07996 , -0.4801154
0.4507475 , 0.1775855 , 0.369105
0.1461463 , -0.1706938 , 0.1672948
-0.1164078 , -0.07355133 , -0.05759438
0.01067552 , 0.02613062 , -0.1370611
0.1081679 , -0.07458129 , -0.1863964
-0.04250301 , -0.1524074 , -0.1660517
-0.01278408 , -0.1822367 , -0.1655497
-0.1740007 , -0.1021895 , -0.04550299
0.4058472 , 0.2354518 , -0.1594244
-0.04816735 , 0.2715924 , -0.6890873
-0.2437404 , 0.5061517 , -0.6301019
0.5429608 , 0.5071421 , -0.2449914
0.2672709 , 0.7372288 , -0.6611199
0.4446362 , 0.5799478 , -0.6853371
-0.657967 , 0.2919952 , -0.5373902
-0.698625 , 0.3135567 , -0.1239465
-0.3256697 , 0.6270829 , 0.9898075
-0.3121798 , 0.2939569 , -0.2275126
-0.2525145 , 0.26128 , -0.03383568
0.3346825 , 0.05870888 , 0.5108595
0.1913938 , -0.05114834 , 0.3652781
0.1426889 , -0.3805524 , 0.6673767
0.05759607 , -0.5202721 , 0.7236887
0.1046137 , -0.6280138 , 0.9036188
0.06576581 , -0.7061677 , 0.7706897
0.05348841 , -0.6842479 , 0.5227798
-0.6079915 , -0.1557103 , -0.7902982
-1.000781 , 1.312496 , -2.666229
0.09566031 , 0.2858772 , -0.4854457
-0.6002543 , -0.3042953 , 0.3002993
-0.5685766 , 0.7873629 , -0.2547871
-0.07523917 , 0.2952331 , 0.7289914
0.01280847 , -0.750385 , 0.7850972
0.03769913 , 0.1473256 , 1.515111
-0.09651637 , 0.5754973 , 0.3312261
0.3648893 , 0.161352 , 0.1855163
0.04651964 , -0.09716383 , 0.1075225
-0.07320824 , -0.1795077 , -0.04766273
0.0676844 , -0.01192099 , -0.1552757
-0.06927747 , -0.1181618 , -0.2431752
-0.1524659 , -0.1343788 , -0.2376194
-0.2010204 , -0.1136798 , -0.01359621
0.27278 , 0.1637287 , -0.006257481
0.3560187 , 0.2456453 , -0.05876247
0.03068421 , 0.4131211 , -0.5917692
0.3410694 , 0.3525367 , -0.3861655
0.4169308 , 0.3818371 , -0.2971309
0.3991665 , 0.5969687 , -0.6282188
0.2130496 , 0.4641083 , -0.6922715
-0.2990579 , 0.3232088 , -0.7093115
-0.2135386 , 0.7209519 , 0.9820244
-0.4091416 , 0.4021458 , 0.0003284205
-0.4391322 , 0.33847 , -0.208737
0.2784083 , 0.2511298 , 0.4384234
0.4259116 , -0.06763154 , 0.371958
0.1385891 , -0.0498536 , 0.3525145
0.2053252 , -0.3537244 , 0.7254228
0.1061783 , -0.6318229 , 0.8146542
0.1043911 , -0.7443394 , 0.8946059
0.04444436 , -0.75142 , 0.7674392
-0.0790692 , -0.5869696 , 0.3346083
-0.8765989 , 0.2905703 , -1.230056
0.1724817 , 1.080772 , -0.6277176
-0.3427095 , -0.8044435 , -0.08360688
-0.3497345 , -0.5131988 , 0.07128328
-0.8214949 , 1.069933 , 0.2860624
-0.2511169 , -0.3695486 , 1.223312
0.02521764 , -0.7464201 , 0.5601239
0.02255433 , 0.4578412 , 1.14835
0.2305921 , 0.719671 , -0.2201305
0.1205275 , 0.004795565 , 0.2196942
-0.007190944 , -0.178354 , 0.1237228
-0.0929828 , -0.1122456 , -0.1228287
0.03502602 , -0.07932705 , -0.1308107
0.007547025 , -0.1652801 , -0.1214929
-0.008158661 , -0.1361312 , -0.3990822
-0.1564671 , -0.05780113 , -0.1353039
0.4020554 , 0.1762699 , -0.1503659
0.05020572 , 0.1314126 , -0.6375911
-0.2618626 , 0.4329948 , -0.6656936
0.3954555 , 0.4569606 , -0.3096744
0.2304807 , 0.6935986 , -0.5812516
0.4667088 , 0.6663047 , -0.6824801
0.1186202 , 0.4363019 , -0.7461737
-0.4017483 , 0.348092 , -0.4035917
-0.1540699 , 0.6236016 , 0.7785889
-0.5560806 , 0.4219539 , -0.305183
-0.1567697 , 0.342385 , 0.1528339
0.09685971 , 0.3192622 , 0.4555871
0.3191184 , 0.03358466 , 0.4739316
0.2062889 , -0.2804622 , 0.650025
0.1364802 , -0.5986751 , 0.7905837
0.1532494 , -0.7360791 , 0.9305003
0.1214304 , -0.8527457 , 0.8790693
0.1046747 , -0.7691711 , 0.6057569
-0.4789083 , -0.2844982 , -0.6079434
-0.08137798 , 1.835633 , -1.276116
0.2173433 , 0.4614021 , -0.4767245
-0.4184285 , -0.4945209 , -0.1010377
-0.1544253 , 0.3104756 , 0.618307
-1.325585 , 1.474187 , -0.4389134
0.1680922 , -0.7886733 , 1.026647
0.3234589 , -0.3591799 , 1.592238
0.05144899 , 0.6371834 , -0.1598041
0.2674666 , 0.446498 , 0.1156842
0.14536 , 0.01802657 , 0.1434054
-0.08387044 , -0.234829 , -0.05477092
0.01495135 , -0.05572999 , -0.169724
0.05175667 , -0.106986 , -0.06791345
0.02795483 , -0.1459433 , -0.1586672
-0.1127344 , 0.0642403 , -0.2978961
0.4325665 , 0.1853102 , -0.2290158
0.3767905 , 0.160609 , -0.3154193
-0.1106382 , 0.3739492 , -0.4345419
0.4946117 , 0.4942045 , -0.3287293
-0.1351002 , 0.24795 , -0.7289832
-0.3595729 , 0.180705 , -0.5749083
-0.3595729 , 0.180705 , -0.5749083
-0.3595729 , 0.180705 , -0.5749083
-0.1234283 , 0.7680703 , 1.033475
-0.3541449 , 0.3509328 , -0.2547545
-0.3375632 , 0.421647 , -0.1226952
0.4979492 , 0.1844554 , 0.2789002
0.2010433 , -0.05394775 , 0.3689813
0.07356829 , -0.1363524 , 0.5221029
0.1005098 , -0.4768758 , 0.7630036
0.07057673 , -0.6762457 , 0.8481588
0.02164265 , -0.7834495 , 0.8735138
0.01298365 , -0.8061962 , 0.7019072
-0.7528346 , 0.1242666 , -1.196771
-0.9442995 , 0.6202489 , -1.888632
0.03951035 , 0.4894097 , -0.6024138
-0.3988061 , -0.347641 , 0.2178979
0.2899048 , -0.04500688 , -0.1955542
-0.859061 , 0.6836483 , 0.218925
-0.2498796 , -0.8498356 , 0.5148257
0.3638303 , -0.08404948 , 1.52258
-0.04749516 , 0.6421651 , 0.3738831
0.268797 , 0.5167307 , 0.0513829
0.006722214 , -0.09314438 , 0.2137638
-0.1483977 , -0.1906255 , -0.0009401917
0.02930562 , -0.0341129 , -0.1263056
0.1076405 , -0.0358055 , -0.2077385
-0.03039861 , -0.2064812 , -0.239213
-0.1351182 , -0.1217214 , -0.1681524
-0.1427478 , 0.05190285 , -0.1965647
0.4983149 , 0.2506957 , -0.3434332
-0.2252563 , 0.3998471 , -0.9113882
0.2094907 , 0.3656525 , -0.3020535
0.4115218 , 0.4810152 , -0.2796454
0.173167 , 0.7170287 , -0.6412529
0.453517 , 0.5494319 , -0.7360997
-0.3176842 , 0.2038275 , -0.599147
0.1199892 , 0.5893521 , 0.9065503
0.02643009 , 0.7295442 , 0.9396974
-0.2558926 , 0.4302288 , -0.05885531
0.2069155 , 0.4499258 , 0.5207643
0.3291129 , 0.3998981 , 0.4144468
0.02184424 , -0.1377601 , 0.4335952
0.03045014 , -0.430593 , 0.6942115
-0.002506765 , -0.5816796 , 0.7706327
0.01893467 , -0.767146 , 0.8091052
-0.02008984 , -0.8283184 , 0.662213
-0.2110609 , -0.7867709 , 0.4999393
-0.9145895 , 0.7329176 , -1.960472
0.4347576 , 2.019273 , -0.9191917
0.184854 , 0.1360239 , -0.3900004
-0.3865393 , -0.5662894 , 0.07073973
-0.06909887 , 0.7608024 , 0.1090364
-0.3691524 , 0.1556464 , 1.095231
-0.5741382 , -0.8212727 , 0.3201801
0.341795 , 0.2025152 , 1.522779
-0.005260135 , 0.7824758 , -0.4656599
0.3222444 , 0.2920203 , 0.2260366
-0.1453436 , -0.2220311 , 0.05262946
-0.1411588 , -0.2299604 , -0.01318122
-0.09567824 , -0.1050234 , -0.1766427
-0.05819462 , -0.07912087 , -0.2124079
-0.04121965 , -0.1341307 , -0.2631592
-0.1677456 , -0.1470976 , -0.2476329
0.1193416 , 0.1603086 , -0.3728794
0.1889572 , 0.1957224 , -0.4458488
-0.2055557 , 0.2727551 , -0.3746658
-0.06078446 , 0.3731312 , -0.4105394
0.3391115 , 0.8174974 , -0.5574274
0.2352476 , 0.7135969 , -0.9480428
0.05195078 , 0.418334 , -0.6081357
0.5914801 , 0.4196246 , 0.3174761
0.07206352 , 0.6073944 , 0.1435043
0.02119433 , 0.5280518 , 0.1579943
-0.05778581 , 0.4002163 , 0.1865538
0.4438157 , 0.2145219 , 0.5016814
0.4403226 , 0.1163102 , 0.573654
0.2475849 , -0.01360536 , 0.6181099
0.1081177 , -0.3302922 , 0.8723937
-0.03299584 , -0.5396212 , 0.9306857
-0.3108689 , -0.6266727 , 0.7787475
-0.4650773 , -0.2164949 , 0.2855495
-0.3377667 , 0.2718517 , -0.5391656
-0.3379731 , 0.4841644 , -0.9330219
0.798705 , 0.4033222 , -0.1435702
0.651279 , -0.3990566 , -0.02270242
0.6234823 , -0.2364092 , 1.061659
-1.949074 , 1.437677 , -0.729237
-0.5255998 , -0.5487676 , 0.9249562
0.3541271 , -0.5283471 , 1.598718
0.3465609 , 0.3177458 , 0.8522563
0.2339612 , 0.8397834 , 0.1738369
-0.04415143 , -0.04722096 , 0.1535547
0.06012025 , -0.4266043 , 0.266553
-0.009126413 , -0.0401368 , 0.09820616
0.0139554 , 0.2526401 , -0.1174503
-0.1473426 , -0.09206412 , -0.04808874
-0.5482723 , -0.2577695 , -0.3312517
0.02325277 , -0.05466007 , -0.09521973
0.3049114 , 0.1055193 , -0.09085308
0.1869656 , 0.1178104 , -0.3590375
-0.1268665 , 0.09578143 , -0.1060852
-0.06950109 , 0.2931883 , -0.06362727
0.04317146 , 0.4725684 , -0.4507868
-0.116694 , 0.4546984 , -0.4154918
-0.5485557 , 0.282443 , -0.2717665
-0.06853762 , 0.07597254 , 0.4633761
0.1385672 , 0.0928843 , 0.6231795
0.4641272 , 0.1938361 , 0.231113
0.1507401 , 0.0267481 , 0.3113835
-0.1757998 , 0.09291302 , 0.3987252
-0.1037561 , -0.0002039333 , 0.4118384
-0.07711364 , -0.04669152 , 0.3109918
0.04344193 , -0.09399416 , 0.3786529
-0.01492231 , -0.1636194 , 0.5063398
-0.05488046 , -0.2205406 , 0.4674752
-0.09806328 , -0.1903081 , 0.3925465
-0.06477629 , -0.162973 , 0.06471388
0.06307331 , -0.2166405 , -0.001210112
0.08551529 , -0.2222752 , -0.07373985
-0.01128298 , 0.1667981 , -0.4193209
0.02056527 , 0.1281227 , -0.3428801
-0.07473662 , -0.1236406 , -0.03493974
-0.454834 , -0.1683346 , 0.2972614
-0.5414919 , 0.7421088 , -0.2841912
-0.5617175 , 0.8810321 , -0.06288122
-0.3753341 , -0.7683352 , 1.086767
-0.1253893 , 0.6712204 , 0.2911109
-0.3065022 , 0.8241268 , -0.2642125
-0.03084379 , -0.157821 , 0.2334097
0.2283405 , -0.1714707 , 0.1619462
0.2389965 , -0.02159375 , 0.02589422
-0.2059786 , 0.1114969 , -0.128889
-0.3721446 , -0.2071621 , -0.1418664
-0.1749306 , -0.1531494 , -0.06602417
-0.1562034 , -0.0813084 , -0.1450606
-0.1583718 , -0.06530625 , -0.04995348
-0.2127644 , 0.1024234 , -0.380957
0.1185057 , 0.3084686 , -0.4307483
0.09769693 , 0.5012876 , -0.4419936
0.002249877 , 0.749109 , -0.6928793
0.08052016 , 0.6556314 , -0.8851884
0.1064274 , 0.4182853 , -0.3875988
-0.237037 , 0.3072879 , 0.3323145
-0.6683246 , 0.5719861 , 0.3728913
-0.2856717 , 0.3212423 , 0.03221997
-0.09013572 , 0.2532616 , 0.2282856
0.3682876 , 0.02475313 , 0.1975572
0.0217914 , -0.4263381 , 0.4604587
0.0407034 , -0.5428035 , 0.4747699
-0.03600439 , -0.6387517 , 0.6142391
-0.09365184 , -0.5287883 , 0.7768351
-0.1128957 , -0.5064946 , 0.7853186
-0.3710787 , -0.2322421 , -0.154056
-0.6393565 , 0.1721716 , -1.308442
-0.2885626 , 0.9167092 , -1.076627
0.02286782 , -0.05654557 , -0.2909681
-0.1701404 , -0.1346365 , 0.1970558
-0.4016738 , 0.7129885 , 0.5617542
-0.4907858 , 0.2590872 , 1.16618
0.3005151 , -0.3403487 , 1.732383
0.160773 , 0.4350818 , 1.706874
0.5826494 , 0.8538585 , -0.04407626
0.5026942 , 0.05919226 , 0.1793864
0.1063881 , -0.2487692 , 0.02579474
-0.03137441 , -0.2611437 , -0.1066211
0.1392693 , -0.09712555 , -0.049206
-0.1717221 , -0.1683156 , -0.1491873
-0.3966655 , -0.2092605 , -0.2678589
-0.3695771 , 0.1662561 , -0.3136914
0.4209683 , -0.008731881 , -0.08438033
0.1426879 , 0.002295054 , -0.2405994
0.2210292 , 0.4427875 , -0.4990645
0.2628735 , 0.4581068 , -0.5969775
0.3759314 , 0.9486426 , -0.7503611
0.7162663 , 0.6122764 , -0.6139156
0.4297974 , 0.1398941 , -0.2899087
-0.3015513 , 1.145198 , 0.7547352
0.2086756 , 0.4063507 , 0.4976422
-0.2438569 , 0.5987855 , 0.2552581
0.02358495 , 0.3501261 , 0.5975611
0.1988655 , 0.2092675 , 0.534451
0.3425871 , 0.06706478 , 0.7282579
0.08924288 , -0.3323199 , 1.082752
-0.03816682 , -0.5571867 , 1.173446
-0.08387041 , -0.5993108 , 1.182172
-0.4679798 , -0.5747014 , 0.9013205
-0.4758938 , -0.2258565 , 0.4000915
-0.424674 , -0.01344025 , -0.1806928
0.1399547 , 1.893676 , -1.681428
0.7067294 , -0.08398347 , -0.4147593
0.6035806 , -0.8592628 , -0.214369
-0.5531554 , 0.4098493 , 0.8546015
-1.271838 , 1.226324 , -1.049576
0.07261285 , -0.6039134 , 0.794745
0.2047161 , 0.3098759 , 0.8642825
0.4000348 , 0.7289572 , 0.05335059
0.4825527 , 0.6807298 , 0.2200272
-0.01280222 , -0.2417857 , 0.2682047
-0.06735668 , -0.3615569 , 0.07476331
0.004760617 , -0.005519119 , -0.03133459
0.1250283 , 0.01246901 , -0.09102623
-0.1441779 , -0.3008106 , 0.08623134
-0.3377402 , -0.147414 , 0.1050201
-0.07461824 , 0.1577738 , -0.16022
0.03004047 , 0.3144802 , -0.3291728
-0.2592074 , 0.3510034 , -0.553616
0.4861457 , 0.3977178 , -0.2881573
0.517355 , 0.6028322 , -0.2808936
0.3565547 , 0.6399289 , -0.45232
0.1916561 , 0.2505882 , -0.5642974
-0.06082179 , 0.3817873 , -0.3804542
0.08464341 , 0.7240898 , 1.04006
-0.3068798 , 0.5297962 , 0.126628
-0.3085077 , 0.4895949 , 0.1204083
0.4505623 , 0.2721122 , 0.6138734
0.3682386 , 0.09841901 , 0.6711817
0.2132889 , -0.1715074 , 0.7951526
0.2264861 , -0.2773186 , 0.8881229
0.05549635 , -0.63029 , 1.027508
-0.03826572 , -0.6930953 , 0.9090708
-0.07518977 , -0.7188364 , 0.7319219
-0.4429888 , 0.0199655 , -0.6128385
-0.5390115 , 1.056935 , -1.858721
0.2722927 , 0.9882405 , -0.5501528
0.07328445 , -0.5911753 , -0.2724904
0.07833386 , 0.2147253 , 0.5864788
-1.146467 , 1.048812 , 0.4291416
0.04746394 , -0.7869427 , 1.145956
0.6452508 , -0.39697 , 1.653748
0.2910523 , 0.3421699 , 1.367759
0.2574522 , 0.5133567 , 0.2014261
0.220884 , 0.06625689 , 0.3285934
-0.02251335 , -0.2439981 , 0.1480426
-0.07680187 , -0.2338196 , 0.01792851
0.02041654 , -0.08205739 , -0.02746696
-0.0236292 , -0.101481 , -0.05407673
-0.02855837 , -0.1025113 , -0.224027
0.1577161 , 0.1613681 , -0.213628
0.3144835 , 0.216924 , -0.1862083
-0.3352402 , 0.2196656 , -0.4186254
0.2908328 , 0.4168029 , -0.1659203
0.461409 , 0.5163697 , -0.1124875
0.4039991 , 0.5907826 , -0.597882
0.261771 , 0.5105238 , -0.7395605
-0.1809473 , 0.2228593 , -0.623074
-0.1818084 , 0.345697 , 0.4915634
-0.4674012 , 0.5385721 , 0.1668004
-0.4728745 , 0.3328588 , 0.001356889
0.2579995 , 0.4141632 , 0.6091346
0.586964 , 0.1115579 , 0.594631
0.1691208 , -0.03371156 , 0.4351826
0.1995721 , -0.364095 , 0.8651381
0.1761064 , -0.4880299 , 0.9454678
0.1408543 , -0.5826148 , 1.022912
0.001680923 , -0.6997576 , 0.8436431
-0.08796985 , -0.6666517 , 0.4833605
-0.5397411 , -0.06243765 , -0.8716265
-0.3051278 , 1.883425 , -1.91745
0.06096653 , 0.2791113 , -0.4165291
-0.1668664 , -0.7059695 , 0.0550081
-1.104433 , 1.010296 , 0.1864969
-0.08419587 , 0.0193527 , 1.168619
0.1309266 , -0.4724913 , 1.415017
0.1784759 , 0.2336791 , 1.238086
0.07425744 , 0.6486937 , -0.07018089
0.1211088 , 0.6024687 , 0.02733509
0.04688917 , -0.171566 , 0.1557473
-0.1617186 , -0.2536718 , -0.02027534
-0.02818722 , -0.02748316 , -0.01322511
-0.004857576 , -0.1030652 , -0.009338746
-0.07398584 , -0.123466 , -0.03189202
-0.08872098 , -0.1505926 , -0.04325649
0.4682182 , 0.2377637 , -0.2019311
-0.3461436 , 0.3009174 , -0.7526407
-0.125018 , 0.3299782 , -0.4434359
0.4333257 , 0.4101639 , -0.2277606
0.3082992 , 0.7756366 , -0.545426
0.2440558 , 0.6015241 , -0.8526752
-0.1622649 , 0.3572469 , -0.7585918
-0.003471714 , 0.3932809 , 0.8487923
-0.3442155 , 0.7857824 , 0.6521947
-0.2681806 , 0.4412922 , -0.1005735
0.3886721 , 0.250037 , 0.575493
0.4190405 , 0.1625826 , 0.3565823
0.1260386 , -0.06421929 , 0.5483464
0.1515675 , -0.3573518 , 0.8080441
0.09508631 , -0.5037901 , 0.8432496
0.04600111 , -0.7323323 , 1.01872
-0.01117356 , -0.7019399 , 0.895465
-0.1970627 , -0.5199248 , 0.4762322
-0.8351631 , 0.250133 , -1.253334
-0.3754406 , 2.160711 , -2.248805
0.1352971 , -0.4409626 , -0.2674522
0.1890157 , 0.02135702 , 0.06430245
-0.5978581 , 1.187701 , 0.605889
-0.4346122 , 0.3606623 , 0.7680759
0.1981439 , -0.6463074 , 1.129353
0.005535197 , 0.4414639 , 1.432518
0.0413778 , 0.6155676 , 0.05533399
0.2541934 , 0.1542216 , 0.314616
0.1285928 , -0.1459771 , 0.1512293
-0.1143782 , -0.1722821 , -0.03491662
-0.01131169 , -0.05034245 , -0.09461646
-0.02156348 , -0.2385371 , 0.002266658
-0.0808065 , -0.1950979 , -0.3221388
0.3579926 , 0.155776 , -0.06098015
0.218037 , 0.144207 , -0.3274763
-0.1472795 , 0.1550603 , -0.5324223
0.5575281 , 0.3810552 , -0.2197324
0.4771095 , 0.5084301 , -0.2480261
0.1786234 , 0.6506819 , -0.5456376
0.2383691 , 0.5404721 , -0.7660092
-0.3022668 , 0.2522407 , -0.6682568
-0.2965902 , 0.4380924 , 0.5271593
-0.284175 , 0.7788372 , 0.8108555
-0.4208973 , 0.3565853 , -0.04592705
0.03707869 , 0.3148455 , 0.2330678
0.5245328 , 0.01670455 , 0.4929638
0.1640049 , -0.1138054 , 0.5131103
0.2203996 , -0.2647327 , 0.7694053
0.125427 , -0.5586739 , 0.897351
0.09985266 , -0.6888395 , 0.9469946
0.04629575 , -0.7017357 , 0.7827336
-0.09683906 , -0.608031 , 0.4539477
-0.8009744 , 0.1455735 , -0.9857182
-0.1365281 , 1.752095 , -1.597708
-0.08605134 , -0.5160993 , -0.1621475
0.0583629 , -0.01663251 , 0.3115813
0.1024797 , 0.1098523 , 0.2397762
0.05039628 , -0.2474177 , 1.443457
0.161301 , -0.5820497 , 1.126105
0.2336214 , -0.3271043 , 1.483829
0.1699706 , 0.7018412 , -0.1902809
0.2317398 , 0.1205436 , 0.2393799
-0.1933357 , -0.2150656 , 0.1252073
-0.05170233 , -0.1135514 , -0.05406235
0.142729 , -0.08401737 , -0.1029774
0.07982648 , -0.2096066 , -0.1937955
-0.1649457 , -0.06921823 , -0.1108242
0.1484658 , 0.1356845 , -0.1968683
0.3593279 , 0.1146298 , -0.3778651
-0.1492629 , 0.4011101 , -0.4698388
0.2136143 , 0.2928588 , -0.1841366
0.1850635 , 0.3873553 , -0.2725095
0.07269049 , 0.5975146 , -0.5275593
0.2831867 , 0.5161755 , -0.7867072
-0.02541406 , 0.382898 , -0.7860015
-0.2967758 , 0.21353 , -0.2984794
-0.09722974 , 0.8092378 , 0.893296
-0.4696669 , 0.5308396 , -0.06108809
0.06395147 , 0.3619783 , 0.4644905
0.5136792 , 0.0221928 , 0.5805837
0.3832278 , -0.005691942 , 0.3778444
0.1980382 , -0.3444962 , 0.7664964
0.08129536 , -0.6433654 , 0.8414873
0.07041009 , -0.748901 , 0.8471698
0.07778181 , -0.7490402 , 0.769995
0.06543642 , -0.6893026 , 0.508844
-0.6972132 , 0.1742681 , -0.9985683
-0.6872688 , 1.798605 , -2.311739
0.117013 , 0.4550726 , -0.4682401
-0.3199406 , -0.512962 , -0.01675795
2.472998e-06 , 0.5705712 , 0.6581188
-0.5570003 , 0.3660856 , 0.6247043
-0.2232903 , -0.6854524 , 0.7720085
0.4504174 , 0.148716 , 1.532825
0.05380777 , 0.6060525 , 0.2181889
0.2970011 , 0.4533 , 0.2287854
0.0252096 , -0.2860083 , 0.2794908
-0.2248437 , -0.1919985 , -0.04174034
0.02915613 , -0.06472386 , -0.1633223
-0.03573243 , -0.1329953 , -0.2216672
-0.06436853 , -0.2145804 , -0.1850336
0.00903487 , -0.1172694 , -0.2356161
0.1670164 , 0.1748107 , -0.227804
0.1905892 , 0.1442278 , -0.5366002
-0.2018862 , 0.2794027 , -0.6904867
0.3065407 , 0.4718254 , -0.2831505
0.1853436 , 0.6068914 , -0.4907348
0.2858988 , 0.5503943 , -0.6311861
-0.0256443 , 0.5030807 , -0.7405589
-0.4178475 , 0.282729 , -0.5939392
-0.01066545 , 0.4995738 , 0.8743032
-0.3654165 , 0.6831082 , 0.2646494
-0.1601744 , 0.3664687 , 0.03926876
0.4717204 , 0.3708951 , 0.4847336
0.5442051 , 0.0130892 , 0.4546236
0.1542657 , -0.1277697 , 0.6594513
0.1885955 , -0.3708698 , 0.8196265
0.1764303 , -0.6556119 , 0.9350274
0.05780232 , -0.7594792 , 0.9385218
-0.0842518 , -0.7357695 , 0.6985529
-0.8266159 , 0.1514883 , -1.172471
-0.9130783 , 0.5629404 , -1.358699
0.1363124 , 1.162348 , -0.9743307
-0.2295307 , -0.171803 , -0.185291
0.03701454 , 0.09828161 , -0.08316597
-0.7386996 , 0.9716336 , 0.2649418
-0.1241854 , -0.9600117 , 0.6748353
0.3355449 , 0.02800837 , 1.653863
0.05489299 , 0.5503088 , 0.2105817
0.3056803 , 0.2461977 , 0.207018
0.2212901 , -0.09060161 , 0.2704568
-0.1808008 , -0.1797875 , -0.1209778
-0.07442205 , -0.05376083 , -0.1657967
-0.02622692 , -0.07212202 , -0.1742126
0.0254327 , -0.1521159 , -0.2365756
-0.1069334 , -0.1032442 , -0.06147977
0.007307956 , 0.1778801 , -0.21056
0.3742006 , 0.2249506 , -0.3618509
-0.1815486 , 0.3778834 , -0.3462476
0.3583153 , 0.4950924 , -0.1756347
0.3059228 , 0.7183203 , -0.4409566
0.2756132 , 0.5196945 , -0.6855081
0.2041662 , 0.5984188 , -0.8709605
-0.3241431 , 0.2641495 , -0.3698033
-0.1311347 , 0.2990246 , 0.5158485
-0.4009029 , 0.4003287 , 0.02278463
-0.3293934 , 0.3712478 , 0.005151433
0.446985 , 0.152719 , 0.08668779
0.1953321 , -0.000837485 , 0.4683664
0.06309479 , -0.05172878 , 0.5186039
0.07931706 , -0.4697769 , 0.8188838
0.03263991 , -0.7053965 , 0.8154569
0.1123149 , -0.7601731 , 0.802151
0.06109595 , -0.693976 , 0.5938359
-0.578641 , -0.1334931 , -0.65214
-1.181648 , 1.227143 , -2.17887
0.08185742 , 0.8164896 , -0.570349
0.07143307 , -0.9831862 , -0.0214058
-0.2582708 , -0.2326972 , 0.5921576
-1.154739 , 1.128266 , -0.4687986
-0.1680133 , 0.3669877 , 0.5848746
-0.2538801 , -0.9626468 , 0.9737642
0.2898547 , 0.03469764 , 1.468552
0.07630527 , 0.6231897 , -0.05351644
0.3857135 , 0.2944523 , 0.1567284
0.1098304 , -0.1355085 , -0.01081721
-0.1367784 , -0.2870522 , -0.09955839
-0.02543356 , 0.01185612 , -0.1631504
-0.04008847 , -0.09823385 , -0.3742432
-0.147496 , -0.05507081 , -0.2064012
-0.1232327 , -0.09133356 , -0.1274307
0.2341319 , 0.2064712 , -0.406224
-0.2669808 , 0.4921607 , -0.7783694
0.1554346 , 0.4042755 , -0.4497236
0.2788943 , 0.4991468 , -0.3644941
0.2022508 , 0.7797065 , -0.6981186
0.2403245 , 0.5706981 , -0.9334854
-0.09564403 , 0.227426 , -0.7569112
-0.1389108 , 0.7329952 , 0.7882998
-0.1260369 , 0.8633599 , 0.9350495
-0.4659404 , 0.4073196 , -0.2339012
0.018308 , 0.2586556 , 0.4264585
0.3450309 , 0.1999492 , 0.3574693
0.1796464 , -0.05863143 , 0.4471063
0.1868744 , -0.3383044 , 0.7714379
0.1282439 , -0.6060452 , 0.8632751
0.1697713 , -0.7802196 , 0.9641511
0.03583096 , -0.8881685 , 0.8252901
-0.05003307 , -0.70812 , 0.5098433
-1.223131 , 1.232473 , -2.627174
0.01863177 , 0.5023768 , -0.4446415
-0.03269091 , -0.1304049 , -0.3455635
0.0746216 , -0.1006888 , 0.1650473
-1.047218 , 0.7920294 , 0.1037267
-1.008244 , 0.9272063 , -0.07177325
0.1186546 , -0.8036332 , 0.8501832
0.06109622 , 0.1405085 , 1.16136
0.07473312 , 0.6221994 , -0.1801909
0.4365071 , 0.3888571 , 0.07061192
0.09733395 , -0.1485255 , 0.2040025
-0.2025963 , -0.2318674 , -0.2361959
-0.001147627 , -0.01813301 , -0.2502536
0.06329089 , -0.09460878 , -0.2654119
-0.04779666 , -0.0902071 , -0.3997173
-0.04473135 , 0.05712839 , -0.2906744
0.4451003 , 0.1736132 , -0.1788837
0.2359439 , 0.2573638 , -0.2498741
0.01719781 , 0.4241328 , -0.6832815
0.6343669 , 0.416262 , -0.2021009
0.3136515 , 0.8705599 , -0.6488712
0.2496624 , 0.4710699 , -0.8637626
-0.001137884 , 0.3400413 , -0.7644218
-0.3219628 , 0.3942231 , -0.5238692
-0.4623351 , 0.700878 , 0.1994615
-0.4865258 , 0.4735704 , -0.2902668
-0.4041469 , 0.4273951 , -0.1840241
0.5036111 , -0.0436767 , 0.4569727
0.2312881 , -0.0694217 , 0.4459355
0.2087747 , -0.1387196 , 0.6342032
0.1426494 , -0.6653858 , 0.8833744
0.1302319 , -0.8149028 , 0.9483103
0.01744096 , -0.8642331 , 0.8562165
0.02622043 , -0.8036154 , 0.622012
-1.318944 , 0.662762 , -2.388245
-0.800467 , 2.335158 , -2.259268
-0.4133271 , -0.1077206 , -0.2665285
-0.3024867 , 0.01945842 , -0.450442
-0.4471476 , 0.9974897 , 0.3660676
0.1476445 , -0.6865035 , 1.311282
0.2976336 , -0.07734435 , 1.466107
0.03869396 , 0.3672094 , 0.9448141
0.2875642 , 0.4130456 , -0.1257354
0.188789 , -0.1458282 , 0.08030871
-0.1155538 , -0.2145912 , -0.1380133
0.151006 , -0.05217423 , -0.2361795
-0.0912757 , -0.1190578 , -0.2644075
-0.1710091 , -0.126397 , -0.3541627
-0.1398975 , -0.167341 , 0.09787529
-0.08471777 , 0.1379424 , -0.2000175
0.351259 , 0.202703 , -0.3265057
-0.2056354 , 0.5732446 , -0.6286342
0.4063947 , 0.5053497 , -0.2908088
0.3017639 , 0.749329 , -0.7171744
0.3443105 , 0.5114497 , -0.6294882
0.1645197 , 0.4654844 , -0.8695042
-0.3801316 , 0.2458873 , -0.5590559
0.02338001 , 0.8224263 , 0.9138399
-0.3897298 , 0.5141636 , -0.06764329
-0.4071257 , 0.347893 , -0.1246639
0.5128157 , 0.3103678 , 0.3951091
0.4116615 , -0.0736579 , 0.5247544
0.1674738 , -0.1388351 , 0.3643869
0.1718984 , -0.5268827 , 0.7986959
0.08640125 , -0.6208667 , 0.8781829
0.07930151 , -0.7830186 , 0.8902423
-0.02118439 , -0.8466765 , 0.6301176
-0.2392265 , -0.5429793 , 0.03488087
-1.11361 , 0.6478361 , -1.804989
0.01977387 , -0.3149084 , -0.2703193
-0.3035651 , -0.3393616 , 0.076306
-0.03106122 , -0.09516582 , 0.04990378
-0.377264 , 0.05166665 , 0.9113867
-0.2365339 , -1.026354 , 0.4636614
0.4685935 , -0.5873377 , 1.441162
0.09763029 , 0.6207072 , 0.2473086
0.296942 , 0.3143255 , 0.2252892
0.07204394 , -0.09389934 , 0.104842
-0.1338795 , -0.2537842 , -0.05585605
-0.01005161 , -0.05533135 , -0.1816655
0.03565098 , -0.004329184 , -0.2566949
-0.06192313 , -0.2241935 , -0.3097052
-0.1474449 , -0.06893013 , -0.1344685
-0.07061606 , 0.1871884 , -0.31822
0.3975711 , 0.1440471 , -0.5599816
-0.2331134 , 0.4121796 , -0.5885004
0.459087 , 0.5094174 , -0.2434158
0.4909523 , 0.7039961 , -0.5596618
0.1276976 , 0.5040156 , -0.7949434
0.1145081 , 0.4767833 , -0.8858264
-0.2295673 , 0.2813048 , -0.7141548
-0.1720558 , 0.5967032 , 0.9261336
-0.3833888 , 0.6526777 , 0.6028965
-0.08314686 , 0.3407052 , -0.04768378
0.4090436 , 0.2720035 , 0.2870107
0.4102409 , 0.01250378 , 0.4851829
0.160922 , -0.1582484 , 0.5725452
0.1565778 , -0.5331802 , 0.7017993
0.1285937 , -0.6504533 , 0.7817053
0.1118607 , -0.8106833 , 0.8060206
0.02884652 , -0.8943315 , 0.6113852
-0.2986432 , -0.4829096 , -0.03427341
-1.533891 , 1.922855 , -2.816628
0.05683234 , -0.1491193 , -0.3692628
-0.1500395 , -0.9427762 , -0.02771589
-0.1934937 , 0.2369324 , 0.7093585
-1.307867 , 1.166627 , -0.3344446
-0.4126772 , -0.3021328 , 1.05013
0.2174574 , -0.5816 , 1.271023
0.1469975 , 0.4548185 , -0.2634638
0.1745116 , 0.5764089 , -0.2834345
0.2546271 , 0.1544195 , -0.2850609
-0.1383853 , -0.3005691 , -0.3142352
-0.1725584 , -0.2058239 , -0.2851031
-0.2587009 , 0.03710446 , -0.6026478
-0.2375691 , -0.02074002 , -0.2708033
-0.2110426 , 0.0007097634 , -0.2673023
0.1805445 , 0.2461802 , -0.5479349
-0.152624 , 0.4323198 , -0.8312238
0.02884392 , 0.6213352 , -0.8297524
0.1940377 , 0.4983878 , -0.5818152
-0.01080172 , 0.7715914 , -0.657954
0.3809881 , 0.6900618 , -0.9047611
0.1242146 , 0.4213605 , -0.8366342
-0.2106559 , 0.3862811 , -0.5289544
-0.1550785 , 0.6789145 , 0.4431615
-0.4146885 , 0.4249884 , -0.2509065
-0.008523196 , 0.3136588 , 0.03127303
0.4343047 , 0.2813582 , 0.3125382
0.2919674 , -0.01574877 , 0.3915681
0.07516526 , -0.1485852 , 0.64375
-0.09226149 , -0.3900042 , 0.8944559
-0.325859 , -0.6631682 , 1.039645
-0.7122952 , -0.6297652 , 0.9244891
-1.039233 , -0.6523935 , 0.6398858
-0.8217807 , -0.08510449 , -0.4832317
-0.2259098 , 1.421904 , -2.321808
0.3922755 , 1.228032 , -1.794683
0.05299586 , -0.06016745 , 0.3404748
-0.6239352 , 0.5579512 , 0.4722956
-1.211901 , 0.9964721 , 0.5957132
-0.4107353 , -1.174526 , 0.5920123
0.06965861 , 0.17515 , 1.798085
-0.2849135 , 0.8711993 , -0.6286818
0.1825594 , 0.414652 , 0.2572202
-0.2110635 , -0.165371 , -0.006110345
-0.4428982 , -0.21422 , 0.008603822
-0.3838716 , -0.1548023 , -0.2803625
-0.3838716 , -0.1548023 , -0.2803625
-0.4727922 , -0.1727609 , 0.04494725
-0.3497003 , 0.1716316 , -0.230483
-0.4323332 , 0.3818817 , -0.7023638
-0.5427586 , 0.4320621 , -0.7676833
0.1155391 , 0.3957253 , -0.3270176
-0.1520473 , 0.7090462 , -0.7252131
-0.05421649 , 0.6471419 , -0.6845383
-0.0002359726 , 0.5276015 , -0.763417
-0.5153967 , 0.2663735 , -0.8430305
-0.4724427 , 0.3964967 , 0.136078
-0.5053173 , 0.4806854 , 0.1403854
-0.6650036 , 0.4407821 , -0.2734663
0.04789652 , 0.3568816 , 0.5662034
0.05680249 , 0.06281472 , 0.4664071
-0.1813673 , -0.05113399 , 0.3554408
-0.161788 , -0.3519279 , 0.7941015
-0.254294 , -0.4605517 , 0.9513211
-0.3363882 , -0.6216455 , 1.042081
-0.4650297 , -0.6903336 , 0.8531944
-0.6316805 , -0.4570746 , 0.2637747
-1.021693 , 0.07707463 , -0.6412746
-0.0616584 , 1.398379 , -0.9338863
-0.1707086 , -0.2624284 , -0.120614
-0.3418045 , -0.6140355 , -0.05044972
-1.060491 , 1.078419 , 0.5324235
-0.5238776 , 0.1070555 , 0.879601
-0.4800142 , -0.8708689 , 0.8379719
-0.1230797 , 0.4519797 , 1.586242
-0.02869715 , 0.9170094 , -0.2484383
-0.04935561 , 0.2230209 , 0.5739089
-0.42845 , -0.1148692 , 0.1244837
-0.2355695 , -0.09675181 , -0.01996612
-0.2319266 , -0.02514184 , -0.101657
-0.3046997 , -0.1737861 , -0.03918238
-0.4577973 , -0.02847467 , -0.2684434
-0.4078112 , 0.01251818 , -0.2034021
0.2241723 , 0.2313247 , -0.2237019
-0.8923336 , 0.3119615 , -0.71746
-0.3871535 , 0.388032 , -0.4037236
0.2967573 , 0.4630924 , -0.1657457
-0.2183325 , 0.7929209 , -0.7590364
0.1555037 , 0.5234663 , -0.7505205
-0.2194219 , 0.39371 , -0.6162354
-0.500481 , 0.5319405 , 0.7476984
-0.5406293 , 0.758877 , 0.8238149
-0.7976037 , 0.4108145 , -0.111671
-0.5739865 , 0.3336527 , 0.1897826
-0.05653122 , 0.1044803 , 0.2250962
-0.02287118 , -0.0335282 , 0.442643
-0.07634187 , -0.1934258 , 0.7531569
-0.1758177 , -0.5406746 , 0.9345748
-0.1371272 , -0.7032146 , 1.079232
-0.1879997 , -0.7795277 , 0.9779838
-0.2491902 , -0.7715095 , 0.724458
-1.622669 , 1.050409 , -1.962406
-0.04265903 , 1.694256 , -0.7518979
0.06438403 , 0.8394182 , -0.3064591
-0.2892449 , 0.267852 , -0.2450373
-0.7613354 , 1.248149 , 0.6730061
-0.3763306 , -0.2450555 , 1.552125
0.4665522 , -0.3990021 , 1.614184
-0.1238367 , 0.5847192 , 1.302622
-0.05934735 , 0.8750786 , -0.1917309
0.02406435 , 0.2147418 , 0.3965835
-0.4660352 , -0.2641361 , 0.1486832
-0.4686192 , -0.1967767 , -0.03630423
-0.2598105 , -0.03384459 , 0.001758961
-0.355868 , -0.213187 , -0.03478562
-0.394877 , -0.2638953 , -0.1342944
-0.4271983 , 0.06696368 , -0.05993875
0.2706652 , 0.2204638 , -0.1835384
-0.2496336 , 0.2998906 , -0.4917369
-0.6248939 , 0.377014 , -0.5905324
0.156341 , 0.4272082 , -0.2991738
-0.07979662 , 0.7812853 , -0.674284
0.1197322 , 0.5250966 , -0.6528787
-0.1314336 , 0.4540551 , 0.2129385
-0.100521 , 0.6139274 , 0.7790695
-0.5889382 , 0.4605633 , 0.06717565
-0.4871246 , 0.4063727 , 0.1669292
-0.1869664 , 0.3491654 , 0.4091323
0.3004222 , 0.08263885 , 0.719745
0.01893358 , 0.02500915 , 0.796228
-0.04437546 , -0.2304925 , 1.002051
-0.09302094 , -0.4640979 , 1.127829
-0.2406091 , -0.5788972 , 1.124947
-0.5015133 , -0.5333392 , 0.9494092
-0.5041837 , -0.1752348 , 0.4921032
-0.7893184 , 0.3706841 , -0.7691041
-0.6314434 , 1.37468 , -2.340435
0.2285507 , -0.2555823 , -0.2250042
-0.1731332 , 0.0434984 , 0.571923
-0.1383981 , 0.5702336 , 0.309436
-0.820985 , -0.1686761 , 1.106809
0.5515406 , -0.3413118 , 1.468588
0.2594478 , 0.1852669 , 1.591278
0.2581018 , 0.8808402 , 0.1241815
0.4505287 , 0.7221496 , 0.4308954
-0.1252828 , -0.01830136 , 0.4731435
-0.392381 , -0.2028226 , 0.2412837
-0.309752 , 0.02003557 , 0.1333741
-0.2385764 , -0.0172313 , 0.05581908
-0.2419182 , -0.2268353 , 0.3736422
-0.2152383 , -0.1017647 , 0.5340759
-0.2000507 , 0.1186593 , 0.06459042
0.07185207 , 0.3107666 , -0.1900148
-0.7967796 , 0.2697114 , -0.4377215
0.6170925 , 0.2900856 , 0.2372195
0.4116072 , 0.6527222 , -0.26816
0.2297832 , 0.3022505 , -0.2795812
-0.001477651 , 0.198389 , -0.4852477
-0.09816592 , 0.2979365 , 0.332474
-0.2254182 , 0.7787067 , 0.9174615
-0.2787803 , 0.629755 , 0.4735543
-0.2080863 , 0.4216754 , 0.4572927
0.412843 , 0.4180252 , 0.7587824
0.3517735 , 0.1825436 , 0.8350121
0.115672 , 0.1056672 , 0.9561792
0.1472609 , -0.1209342 , 1.134877
0.06113152 , -0.3398127 , 1.181399
-0.137298 , -0.4173405 , 1.059712
-0.1696892 , -0.4222265 , 1.000485
-0.358148 , -0.09364773 , 0.4905071
-0.342621 , 1.289139 , -1.755403
0.365936 , 1.685825 , -1.119467
0.7116059 , 0.535667 , -0.1417744
0.6502874 , 0.07908744 , 1.230272
-0.9285222 , 1.199512 , 0.2466191
-0.3967246 , 0.7328921 , 0.7149899
0.5177254 , -0.8832326 , 1.523821
0.3006514 , 0.2882966 , 1.284872
0.03348634 , 0.8732147 , -0.1916624
0.381631 , 0.2468045 , 0.4922449
0.01868718 , -0.2922931 , 0.3783009
-0.03848647 , -0.2963389 , 0.3605965
-0.009485949 , 0.03078 , 0.2579842
0.04549212 , -0.1027467 , 0.1421047
-0.1196492 , -0.3077989 , 0.315309
-0.1906651 , 0.04687403 , 0.2466176
0.3374498 , 0.2475152 , 0.007271807
-0.007651161 , 0.1984953 , -0.1315679
0.04796677 , 0.2059894 , -0.2880868
0.8046216 , 0.2791381 , 0.3661825
0.03708508 , 0.7369828 , -0.3259028
0.3708754 , 0.3687916 , -0.2544551
-0.2618893 , 0.4229519 , -0.3052494
-0.2765551 , 0.4782274 , -0.0210406
-0.2182128 , 0.695242 , 1.041794
-0.5204517 , 0.4353124 , 0.1483909
-0.1964129 , 0.4050823 , 0.5367907
0.4347064 , 0.1089104 , 0.7491763
0.2965796 , 0.1384727 , 0.7443522
0.2993542 , -0.153807 , 1.013528
0.2742307 , -0.3463192 , 1.027843
0.2943086 , -0.4717556 , 1.11238
0.2961 , -0.5216535 , 0.9736624
0.05894413 , -0.4479925 , 0.4660217
-0.4982524 , 0.3208944 , -1.055591
-0.3454134 , 1.848675 , -1.543023
-0.09482619 , -0.008395129 , -0.1739636
-0.4074914 , -0.05891827 , 0.4487572
-0.6829728 , 1.116677 , 0.6557778
0.5553998 , -0.2938049 , 1.709602
0.61959 , -0.3315203 , 1.278027
0.2346392 , 0.4374974 , 1.477363
0.3803058 , 0.683258 , 0.2878879
0.3916294 , 0.2346724 , 0.5474755
0.192431 , -0.09940868 , 0.4225813
0.1319541 , -0.06297205 , 0.1853561
0.09460264 , -0.1201425 , 0.1959827
0.02261679 , -0.1685241 , 0.2126799
-0.1694805 , -0.08801207 , 0.4291048
0.1640978 , 0.07256591 , 0.0889376
0.4292131 , 0.2796504 , 0.01392423
-0.4293729 , 0.2222205 , -0.6594731
0.2284153 , 0.2026304 , -0.01193358
0.5103543 , 0.2797741 , 0.01831949
0.157166 , 0.5816196 , -0.3366236
0.2476299 , 0.3650715 , -0.3619949
-0.08698977 , 0.3127436 , -0.3107873
-0.01214062 , 0.5793206 , 1.226731
-0.4579793 , 0.5012021 , 0.4106079
-0.5603193 , 0.3794669 , 0.2462422
-0.01654779 , 0.295643 , 0.5912554
0.6002262 , 0.2463612 , 0.6443616
0.2873544 , 0.1204946 , 0.5192211
0.3639133 , -0.1708909 , 0.969325
0.2094891 , -0.3431507 , 1.042279
0.1522201 , -0.5316674 , 1.13383
0.2399411 , -0.386926 , 0.8165521
-0.08752593 , -0.1664976 , 0.2903488
-0.5536061 , 0.3076903 , -0.7013085
0.2677447 , 0.8846605 , -0.5515145
0.1543539 , 0.08281562 , -0.1414305
-0.1803229 , 0.3247735 , 0.1727025
-0.5140198 , 1.00659 , 0.4166686
-0.03134799 , -0.2969635 , 1.386074
0.5717593 , 0.06476797 , 1.229754
0.4095508 , 0.619015 , 1.265505
0.3652289 , 0.5156971 , 0.3544761
0.13376 , 0.1554741 , 0.5563874
0.06758066 , 0.04689328 , 0.3881651
0.290803 , -0.1147459 , 0.08152194
0.1908007 , -0.1859361 , 0.1038261
-0.04455354 , -0.0137204 , 0.1279034
0.03258263 , -0.1644711 , 0.04892709
-0.1258531 , -0.28056 , 0.2360096
0.1817778 , 0.1525734 , 0.1028015
0.2848715 , 0.1269883 , -0.2598855
-0.08720891 , 0.2792091 , -0.1664418
0.08434075 , 0.2527837 , 0.118689
0.1425062 , 0.5694984 , -0.2434216
0.07524602 , 0.5011692 , -0.4384209
-0.04354773 , 0.4193145 , -0.273232
-0.2389479 , 0.1188717 , -0.03648705
0.0495825 , 0.3594993 , 1.244736
-0.07405518 , 0.3370265 , 0.4118935
-0.4589179 , 0.4852789 , 0.3557276
0.02081499 , 0.2405037 , 0.9856161
0.5266081 , 0.1544172 , 0.4398144
0.2807542 , -0.0474597 , 0.6889285
0.2961512 , -0.2875339 , 0.908463
0.2423038 , -0.356669 , 0.9936388
0.2812924 , -0.3945769 , 0.8803282
0.2289505 , -0.3659486 , 0.7040164
-0.2540038 , -0.2422803 , -0.08430188
-0.5456005 , 0.3814808 , -1.092083
0.0634557 , 0.8485377 , -0.7755798
-0.05378086 , 0.1167801 , -0.004204556
-0.2828242 , 0.4067042 , 0.4105687
-0.4969702 , 0.8034617 , 0.5899696
0.1646478 , -0.1209092 , 1.500596
0.3483995 , -0.1071871 , 0.6189771
0.6902738 , 0.3476685 , 1.454014
-0.0520652 , 0.1770955 , 0.3363096
0.1769319 , 0.1727047 , 0.4414709
0.2878213 , 0.1731596 , 0.4241766
0.2227117 , -0.189509 , 0.1061277
0.1065485 , -0.1779646 , 0.1409395
-0.06271935 , -0.1429526 , 0.2042471
-0.06649076 , -0.2289576 , -0.007179681
-0.2104816 , -0.1078115 , 0.3269521
0.1987197 , 0.1057821 , -0.04241293
0.05706625 , 0.3935557 , -0.3243828
0.1751232 , 0.3695859 , -0.2051155
0.3938197 , 0.5242724 , -0.02347891
0.0463914 , 0.5294338 , -0.4923852
0.1618958 , 0.5950826 , -0.4707712
-0.09054203 , 0.4514869 , -0.3693767
-0.0428598 , 0.2797171 , 0.9857507
-0.02991494 , 0.1821942 , 0.6154633
-0.2587477 , 0.555093 , 0.3288829
-0.1351964 , 0.458239 , 0.2514981
0.3443817 , 0.204408 , 0.9431438
0.2543974 , 0.001424861 , 0.5316381
0.2834268 , -0.3926916 , 0.964307
0.2137502 , -0.374042 , 0.9912692
0.2734726 , -0.3711551 , 1.000254
0.18384 , -0.2950082 , 0.7343205
-0.4502799 , 0.02812877 , -0.3290588
-0.804457 , 0.5193104 , -1.32242
0.1050612 , 0.594907 , -0.4046876
0.04318296 , 0.3426796 , -0.2527077
-0.1435332 , 0.5416437 , -0.3727159
-0.2222694 , 0.623974 , 1.08217
-0.1566276 , -0.2139099 , 1.46692
0.7720094 , 0.08078749 , 1.681994
0.2808827 , 0.3217923 , 1.089431
0.1106346 , 0.2239446 , 0.313974
0.2688103 , 0.3132584 , 0.4068244
0.2579699 , 0.185924 , 0.2086965
0.1918369 , -0.189806 , 0.07440665
0.0975238 , -0.3180183 , 0.03597089
-0.1105297 , -0.2073705 , 0.2085453
0.1131315 , -0.2271537 , 0.05098371
-0.04013341 , -0.1373805 , 0.4322674
0.1587396 , 0.1475146 , -0.275599
0.06499162 , 0.199635 , -0.3956238
-0.1280711 , 0.2848883 , -0.2556736
0.4664421 , 0.4242265 , 0.1534609
0.3078885 , 0.5521823 , -0.3538357
0.1522906 , 0.52737 , -0.5222905
-0.2865833 , 0.4206274 , -0.4235865
-0.1545127 , 0.160249 , 0.3805
0.1187386 , 0.08262731 , 1.009231
-0.327226 , 0.4538957 , 0.7117242
-0.2483076 , 0.5212708 , 0.250382
0.2258142 , 0.09758959 , 0.8542985
0.4146768 , 0.05802948 , 0.7626457
0.2306005 , -0.2132795 , 0.4072859
0.129748 , -0.2827939 , 0.8532423
0.1002974 , -0.4356727 , 0.9105963
0.2237092 , -0.3508685 , 0.82999
0.1840503 , -0.310664 , 0.7034245
-0.1275996 , -0.1405484 , 0.2798295
-0.6602181 , 0.5812539 , -1.600661
0.278379 , 0.6994244 , -0.4642363
0.1294045 , 0.07083801 , -0.02303119
-0.1564876 , 0.1149064 , 0.284522
-0.4160365 , 0.5467318 , -0.03862575
-0.2823551 , 0.4680486 , 0.508339
0.2906174 , -0.0810271 , 0.9744964
0.4552457 , 0.09618703 , 1.272218
0.1501684 , 0.1600656 , 0.4066699
0.01110122 , 0.06678959 , 0.4474483
0.2367636 , 0.3459256 , 0.406891
0.02417603 , 0.1038909 , -0.04819099
0.1208757 , -0.001417597 , 0.02815701
-0.03872908 , -0.2602749 , 0.2326293
0.09953777 , -0.1715764 , 0.004358402
0.282765 , 0.01535651 , 0.4806756
0.03226483 , 0.1007065 , 0.1922304
-0.1368358 , -0.1439177 , 0.00411064
0.04352045 , 0.07400175 , 0.2681246
0.05554654 , 0.1390901 , 0.1325052
0.1021326 , 0.05546729 , 0.1267944
-0.01279984 , -0.003636568 , 0.148049
-0.04656303 , 0.0434888 , -0.02317154
0.1011983 , 0.1987409 , 0.2203353
-0.116261 , 0.216675 , 0.1572201
0.01750949 , 0.2353266 , 0.02073722
0.3669953 , 0.2116473 , 1.235568
-0.3275747 , -0.03691193 , -0.3187426
-0.4855534 , 0.4940103 , 0.5147998
0.04900538 , 0.2514547 , 0.3487036
-0.7905881 , -0.1249366 , 0.5265315
-0.9290091 , -0.03802121 , 0.5851837
0.2242251 , 0.1815022 , 0.4747151
0.004592081 , 0.4433224 , 0.4668845
0.03606767 , 0.4773732 , 0.4569189
-0.1383807 , 0.3743697 , 0.1809985
-0.1672237 , 0.02531346 , 0.05776785
0.1589814 , 0.07758295 , 0.07493855
-1.302936 , 1.003665 , -0.8538801
-0.09101576 , -0.1561565 , 0.4365588
-0.432544 , 0.03295584 , 0.6423267
0.03277186 , 0.01602807 , -0.5010189
-0.2819413 , 0.1282911 , 0.2061043
0.1718278 , -0.08229019 , -0.6376774
0.7456579 , -0.3290061 , -0.7153546
0.4846295 , 0.06015227 , -0.4196092
0.3949229 , 0.5452571 , 0.5733343
0.3949229 , 0.5452571 , 0.5733343
0.3949229 , 0.5452571 , 0.5733343
0.06395429 , 0.7598281 , 0.5498731
0.01345225 , 0.404622 , 0.5091563
-0.2875177 , 0.5293657 , 0.291562
-0.169632 , 0.6120845 , 0.4856676
0.008927167 , 0.3239535 , -0.3367555
-0.2659323 , 0.4027188 , -0.4436044
0.2834051 , 0.3680937 , 0.00364832
0.2334667 , 0.1579071 , 0.04936044
0.05539935 , 0.152386 , 0.1678209
-0.01822341 , 0.3232579 , -0.1926127
0.2175371 , 0.2293412 , -0.1572803
0.04044468 , 0.133639 , 0.008740576
0.03381737 , 0.09436298 , -0.0681618
0.1077482 , 0.05907868 , -0.1511883
0.02240243 , 0.05356126 , -0.2412358
0.03554884 , 0.0147233 , -0.2125452
0.07460903 , 0.06026633 , -0.2868398
0.02128352 , 0.1786746 , -0.2113252
0.05597214 , 0.1918107 , -0.1665874
0.0824362 , 0.1446821 , -0.01163101
0.03373925 , 0.218644 , 0.04732889
0.07535071 , 0.1944076 , 0.05586353
0.03807347 , 0.1166276 , 0.05153488
0.007879224 , 0.1999195 , -0.07502449
-0.09366088 , 0.192668 , -0.06134283
0.01442769 , 0.04321283 , -0.07694688
0.02858138 , -0.03521447 , -0.02137838
-0.0285237 , 0.1009924 , -0.03978721
0.01855211 , 0.1083457 , -0.003559353
-0.00911009 , 0.1024733 , 0.02357871
0.04045678 , 0.02327348 , -0.01455302
-0.01222596 , 0.02558658 , -0.04732396
-0.0769767 , 0.05641308 , -0.03953302
0.1005763 , -0.006597318 , -0.07226758
-0.02353309 , -0.005017594 , -0.07434209
-0.005108328 , 0.05253653 , -0.01650874
0.05563046 , -0.02423187 , 0.00896104
0.06060147 , -0.06209829 , 0.02524921
0.02184558 , -0.01012109 , 0.006838389
0.001705278 , 0.004607158 , 0.01567763
0.04876893 , -0.07394909 , -0.003955041
0.0284251 , -0.03311763 , -0.006577556
-0.03458237 , 0.06333623 , -0.05814436
-0.05580715 , 0.05228738 , -0.008962803
-0.04097488 , -0.006664175 , 0.01239421
-0.02600224 , 0.003936711 , -0.01474456
-0.009443111 , -0.01630751 , -0.007569739
0.02045886 , -0.01816626 , 0.002376729
0.02075968 , -0.01836916 , -0.005874876
-0.009896368 , 0.02001521 , -0.02542836
-0.01858072 , 0.004383719 , 0.01029662
-0.04025128 , 0.008892489 , 0.02604218
-0.04864021 , 0.004254538 , 0.01769447
-0.02644311 , 0.03744417 , -0.05609668
-0.03355501 , 0.003863538 , 0.02436376
0.04073311 , -0.03372215 , -0.04359819
0.04073311 , -0.03372215 , -0.04359819
0.02972651 , 0.008459373 , -0.08042065
0.03068223 , -0.05965092 , 0.3021796
0.0424237 , -0.031307 , 0.04649318
0.02730801 , 0.02616266 , -0.04125546
0.02730801 , 0.02616266 , -0.04125546
0.02730801 , 0.02616266 , -0.04125546
0.02730801 , 0.02616266 , -0.04125546
0.02730801 , 0.02616266 , -0.04125546
-0.02677404 , -0.02091685 , 0.03682578
-0.03271763 , -0.004130086 , 0.008292108
0.001549672 , -0.01599624 , -0.01456143
-0.00499553 , -0.00877113 , -0.001690579
-0.007747883 , 0.001372685 , 0.005540436
0.0004190911 , -0.02594995 , 0.01348499
0.002305668 , -0.02859182 , 0.01731121
-0.001925403 , -0.03687841 , 0.01759154
-0.02072708 , 0.01943585 , 0.01290787
-0.007400319 , 0.00860595 , 0.01259298
0.001903787 , 0.009181451 , 0.001757141
0.009318593 , -0.002249898 , -0.01361037
-0.003053887 , 0.00710956 , -0.00735797
-0.003053887 , 0.00710956 , -0.00735797
0.0065463 , 0.005620788 , -0.008850666
