time,timestamp,recordtime,lat,long,alt,speed,course,verticalAccuracy,horizontalAccuracy,locTimeStamp,accelerationX,accelerationY,accelerationZ,HeadingX,HeadingY,HeadingZ,TrueHeading,MagneticHeading,HeadingAccuracy,RotationX,RotationY,RotationZ,motionYaw,motionRoll,motionPitch,motionRotationRateX,motionRotationRateY,motionRotationRateZ,motionUserAccelerationX,motionUserAccelerationY,motionUserAccelerationZ,en0,pdp_ip0,DeviceOrientation,State
2014-11-28 15:43:52.689,1,0.03333334,56.17325,10.18925,63.65033,0.49,172.6172,12,10,1417185832,0.1484985,-0.1273041,-0.9496155,22.16115,-4.667709,-42.34197,276.1676,273.8899,20,-0.04218181,0.01405323,-0.03967844,0.4346005,0.123825,0.1341219,-0.02995451,0.1369212,-0.07223727,0.008780224,0.008216565,0.04114012,0.0.0.0,10.221.79.104,1,0
2014-11-28 15:43:52.723,2,0.06666667,56.17325,10.18925,63.65033,0.49,172.6172,12,10,1417185832,0.1338348,-0.1426239,-0.9668121,22.12737,-4.430618,-42.30891,276.1864,273.9087,20,-0.1115364,-0.2149011,0.04137993,0.4336519,0.1251311,0.1317431,-0.09448776,-0.05422269,-0.002179674,0.03507495,0.006530172,0.02908521,0.0.0.0,10.221.79.104,1,0
2014-11-28 15:43:52.756,3,0.1,56.17325,10.18925,63.65033,0.49,172.6172,12,10,1417185832,0.1165771,-0.1326294,-0.9730835,22.07674,-4.312073,-42.32545,276.1987,273.921,20,-0.1369344,-0.2145642,0.02706358,0.4346317,0.1223683,0.129004,-0.1492102,-0.2124524,0.05073644,0.01278599,-0.01397747,0.01746286,0.0.0.0,10.221.79.104,1,0
2014-11-28 15:43:52.789,4,0.1333333,56.17325,10.18925,63.65033,0.49,172.6172,12,10,1417185832,0.1490784,-0.1391907,-1.019272,21.84042,-4.007233,-42.32545,276.9822,274.7045,20,-0.04291284,-0.2782418,0.1269926,0.437324,0.1123722,0.1220068,-0.1443601,-0.2846052,0.08109314,0.05039512,-0.01867649,-0.04885009,0.0.0.0,10.221.79.104,1,0
2014-11-28 15:43:52.823,5,0.1666667,56.17325,10.18925,63.65033,0.49,172.6172,12,10,1417185832,0.02648926,-0.1202393,-0.9675751,21.31721,-3.719345,-42.60636,277.2492,274.9715,20,-0.03365836,0.04695286,-0.05193803,0.4416356,0.1033701,0.1199274,-0.06982439,-0.2002189,0.1216349,-0.04261524,-0.01231791,0.008117101,0.0.0.0,10.221.79.104,1,0
2014-11-28 15:43:52.856,6,0.2,56.17325,10.18925,63.65033,0.49,172.6172,12,10,1417185832,0.07992554,-0.1157227,-0.9863739,21.31721,-3.719345,-42.60636,277.2492,274.9715,20,-0.04789456,0.1462179,-0.1186886,0.4413852,0.1024202,0.1176528,-0.08778999,0.1108872,-0.1058841,-0.05012758,-0.002110045,0.006864686,0.0.0.0,10.221.79.104,1,0
2014-11-28 15:43:52.889,7,0.2333333,56.17325,10.18925,63.65033,0.49,172.6172,12,10,1417185832,0.115036,-0.1185455,-1.00058,21.41849,-3.516129,-42.7716,277.3216,275.0439,20,-0.04448065,0.0446748,-0.06155071,0.4383722,0.1077513,0.1146974,-0.08084007,0.1485664,-0.09500819,0.005651467,-0.001398607,-0.01875595,0.0.0.0,10.221.79.104,1,0
2014-11-28 15:43:52.923,8,0.2666667,56.17325,10.18925,63.65033,0.49,172.6172,12,10,1417185832,0.09107971,-0.1175995,-0.9942169,21.45224,-3.550003,-42.87077,277.0503,274.7726,20,-0.07005206,0.1378199,-0.100191,0.4365665,0.1100072,0.1118559,-0.08828256,0.03862396,-0.04261642,-0.00578215,-0.002406128,0.01160847,0.0.0.0,10.221.79.104,1,0
2014-11-28 15:43:52.957,9,0.3,56.17325,10.18925,63.65033,0.49,172.6172,12,10,1417185832,0.09846497,-0.1167603,-1.00592,21.72229,-3.482285,-42.96992,276.9696,274.6919,20,-0.04766446,0.4440195,-0.166116,0.4343031,0.1138656,0.1083157,-0.1186452,0.1721699,-0.1030998,-0.007881802,-0.006367385,-0.0196834,0.0.0.0,10.221.79.104,1,0
2014-11-28 15:43:52.989,10,0.3333333,56.17325,10.18925,63.65033,0.49,172.6172,12,10,1417185832,0.1229095,-0.09706116,-0.9796906,22.39745,-3.448395,-42.7716,276.1982,273.9205,20,0.1165863,0.5081754,-0.1691653,0.4266061,0.1374626,0.1053516,0.05450485,0.519417,-0.1573246,-0.01438313,-0.001013811,-0.007356804,0.0.0.0,10.221.79.104,1,0
2014-11-28 15:43:53.023,11,0.3666667,56.17325,10.18925,63.65033,0.49,172.6172,12,10,1417185832,0.1473389,-0.09077454,-0.8917694,22.78566,-3.431458,-42.42458,276.0229,273.7452,20,0.113044,0.4288267,-0.146015,0.4247881,0.1431768,0.1058918,0.07897246,0.5106387,-0.1600327,-0.01897932,0.008632869,0.004533163,0.0.0.0,10.221.79.104,1,0
2014-11-28 15:43:53.056,12,0.4,56.17325,10.18925,63.65033,0.49,172.6172,12,10,1417185832,0.1332092,-0.04962158,-0.740387,23.08948,-3.533066,-42.06103,275.8641,273.5864,20,-0.02203793,0.4946513,-0.1019125,0.4199778,0.1575961,0.1074191,0.03769663,0.3987119,-0.1279462,0.003109229,0.01636179,0.1311307,0.0.0.0,10.221.79.104,1,0
2014-11-28 15:43:53.091,13,0.4333334,56.17325,10.18925,63.65033,0.49,172.6172,12,10,1417185832,0.1440125,0.07913208,-0.4424438,23.98405,-3.211288,-41.51571,276.7043,274.4266,20,-0.06436807,1.816419,-0.2156899,0.4141366,0.1968344,0.1011725,-0.1449035,1.367985,-0.1830005,-0.02383523,0.08917443,0.3390333,0.0.0.0,10.221.79.104,1,0
2014-11-28 15:43:53.123,14,0.4666667,56.1732,10.18927,62.24707,1.1,195.8203,12,10,1417185833,0.06143188,0.1529236,-0.1665344,24.72672,-2.83873,-41.08607,277.2771,274.9994,20,-0.7341083,2.767446,-0.7264278,0.4062,0.2645953,0.09354687,-0.3603673,2.502221,-0.4785808,-0.1989434,0.2463341,0.7944438,0.0.0.0,10.221.79.104,1,0
2014-11-28 15:43:53.156,15,0.5,56.1732,10.18927,62.24707,1.1,195.8203,12,10,1417185833,0.4131012,0.3274078,0.04653931,26.21208,-2.466187,-40.02848,277.7445,275.4668,20,-1.964175,3.709027,-1.348916,0.4014365,0.2937524,0.08487988,-0.7717212,2.76991,-0.7172955,-0.2207545,0.2794191,0.9322186,0.0.0.0,10.221.79.104,1,0
2014-11-28 15:43:53.191,16,0.5333334,56.1732,10.18927,62.24707,1.1,195.8203,12,10,1417185833,1.006989,0.4211121,-0.6669769,28.23753,-1.145294,-38.54122,279.7293,277.4516,20,-3.058899,3.98346,-1.022729,0.3864701,0.4976283,-0.05615822,-3.192017,4.135922,-1.300875,0.3410825,0.3443382,0.4561741,0.0.0.0,10.221.79.104,1,0
2014-11-28 15:43:53.223,17,0.5666667,56.1732,10.18927,62.24707,1.1,195.8203,12,10,1417185833,1.042679,0.5099792,-0.7269592,33.74007,3.054443,-33.18713,274.6913,272.4136,20,-3.029391,4.211168,-0.5278375,0.4155727,0.6278866,-0.1513786,-2.910064,3.939028,-0.5606381,0.3657542,0.3051925,0.1718575,0.0.0.0,10.221.79.104,1,0
2014-11-28 15:43:53.256,18,0.6,56.1732,10.18927,62.24707,1.1,195.8203,12,10,1417185833,1.165787,0.439621,-0.8588409,36.72763,5.780884,-29.07241,271.0405,268.7628,20,-2.771995,4.965283,-0.6657045,0.4644088,0.782755,-0.2359577,-2.863866,4.991311,-0.6218956,0.4306239,0.2722683,-0.1163053,0.0.0.0,10.221.79.104,1,0
2014-11-28 15:43:53.291,19,0.6333334,56.1732,10.18927,62.24707,1.1,195.8203,12,10,1417185833,1.203217,0.4927979,-0.4222412,38.95561,8.65976,-24.74287,276.5462,274.2685,20,-2.542768,4.276174,-0.3982225,0.5189906,0.9504151,-0.3042618,-2.440925,4.531084,-0.4368635,0.4744176,0.1655447,-0.1949295,0.0.0.0,10.221.79.104,1,0
2014-11-28 15:43:53.324,20,0.6666667,56.1732,10.18927,62.24707,1.1,195.8203,12,10,1417185833,1.390778,0.2833557,-1.307205,42.55083,12.53777,-14.61305,272.7384,270.4607,20,-3.236382,3.176061,-0.3954267,0.5955125,1.106205,-0.3635624,-3.407264,3.776876,-0.5076371,0.4897791,-0.001068084,-0.3664769,0.0.0.0,10.221.79.104,1,0
2014-11-28 15:43:53.356,21,0.7,56.1732,10.18927,62.24707,1.1,195.8203,12,10,1417185833,1.238861,0.3186035,-0.759552,43.34415,13.70624,-9.341576,272.8774,270.5997,20,-1.152928,2.676481,0.04721172,0.6779206,1.226315,-0.4032716,-1.762876,2.343429,0.0602849,0.4331283,-0.1079142,-0.8149009,0.0.0.0,10.221.79.104,1,0
2014-11-28 15:43:53.390,22,0.7333333,56.1732,10.18927,62.24707,1.1,195.8203,12,10,1417185833,1.12886,0.3736725,-0.4891205,43.66484,14.77312,0.3916473,272.6649,270.3872,20,-1.797967,1.940725,0.005695703,0.7332155,1.389477,-0.4215896,-1.682098,3.750736,-0.3444395,0.3312933,-0.06852842,0.05012723,0.0.0.0,10.221.79.104,1,0
2014-11-28 15:43:53.423,23,0.7666667,56.1732,10.18927,62.24707,1.1,195.8203,12,10,1417185833,0.796524,0.4895935,-0.01094055,43.64795,14.9594,4.076714,274.9523,272.6746,20,-1.454671,2.440555,-0.6745918,0.7960981,1.489002,-0.4315836,-1.599773,1.438334,0.003626285,0.2235927,-0.04463726,-0.4149094,0.0.0.0,10.221.79.104,1,0
2014-11-28 15:43:53.456,24,0.8000001,56.1732,10.18927,62.24707,1.1,195.8203,12,10,1417185833,1.011902,0.4447021,0.0282135,42.95592,15.17953,7.695686,275.466,273.1883,20,-1.633629,2.347631,-0.740733,0.8303987,1.546152,-0.4420412,-1.492282,2.443018,-0.6654599,0.004887192,0.03887414,0.100719,0.0.0.0,10.221.79.104,1,0
2014-11-28 15:43:53.490,25,0.8333334,56.1732,10.18927,62.24707,1.1,195.8203,12,10,1417185833,0.6470184,0.6172333,-0.03005981,42.39891,15.09488,10.7528,275.6547,273.377,20,-1.353793,1.612788,-1.18803,0.9185049,1.652552,-0.4645784,-1.811013,0.8822083,-0.5269794,-0.07144438,0.08210547,-0.2125962,0.0.0.0,10.221.79.104,1,0
2014-11-28 15:43:53.522,26,0.8666667,56.1732,10.18927,62.24707,1.1,195.8203,12,10,1417185833,0.9532318,0.3712006,-1.129898,40.77853,15.33195,15.01625,272.6338,270.3561,20,0.03391163,-0.8497527,-0.8545871,0.9765503,1.724467,-0.4932329,-1.498852,1.413183,-1.517177,-0.4764758,0.1601148,0.04040955,0.0.0.0,10.221.79.104,1,0
2014-11-28 15:43:53.557,27,0.9,56.1732,10.18927,62.24707,1.1,195.8203,12,10,1417185833,0.7736053,0.3632355,-0.7241058,39.9346,15.80611,16.4374,274.0598,271.7821,20,1.284367,-0.201846,-1.092397,0.9991725,1.734206,-0.5149987,-0.003698181,-0.8472895,-0.8454555,0.1429788,-0.1764174,-1.316051,0.0.0.0,10.221.79.104,1,0
2014-11-28 15:43:53.593,28,0.9333334,56.1732,10.18927,62.24707,1.1,195.8203,12,10,1417185833,0.5156403,0.5337982,-0.1379547,38.97249,16.60204,16.81747,276.4594,274.1816,20,-0.2053073,0.2912081,-1.713238,0.9626819,1.710423,-0.5701191,0.4785348,0.5026988,-1.600224,-0.1873733,-0.1174148,0.1281086,0.0.0.0,10.221.79.104,1,0
2014-11-28 15:43:53.623,29,0.9666667,56.1732,10.18927,62.24707,1.1,195.8203,12,10,1417185833,0.8370819,0.5743256,-0.2081604,37.26772,19.53171,16.37129,281.5521,279.2744,20,0.3929116,0.1443902,-1.891502,0.9753076,1.728763,-0.6243902,-0.06587421,0.5982695,-2.016321,-0.2855778,-0.05080446,-0.2655842,0.0.0.0,10.221.79.104,1,0
2014-11-28 15:43:53.656,30,1,56.1732,10.18927,62.24707,1.1,195.8203,12,10,1417185833,0.7470093,0.681076,0.1553497,37.26772,19.53171,16.37129,281.5521,279.2744,20,0.04172295,-0.8180299,-1.848724,0.9777724,1.737281,-0.6860943,0.1720001,-0.4655949,-1.695434,-0.01601894,0.047556,0.02713007,0.0.0.0,10.221.79.104,1,0
2014-11-28 15:43:53.691,31,1.033333,56.1732,10.18927,62.24707,1.1,195.8203,12,10,1417185833,1.250626,0.6772156,-0.002868652,35.07347,23.25729,16.27214,287.901,285.6233,20,-0.472179,1.970464,-2.122564,0.9934452,1.729076,-0.751429,-0.1399873,-0.06826328,-2.459651,0.3378988,-0.1548364,0.3388349,0.0.0.0,10.221.79.104,1,0
2014-11-28 15:43:53.723,32,1.066667,56.1732,10.18927,62.24707,1.1,195.8203,12,10,1417185833,0.5342255,0.5610046,0.2386475,33.57127,25.30637,16.61916,291.6683,289.3906,20,-0.04920483,0.1998226,-1.07987,1.027104,1.795551,-0.817697,-0.04303609,1.532053,-1.500607,0.5839233,-0.05235715,-0.155288,0.0.0.0,10.221.79.104,1,0
2014-11-28 15:43:53.757,33,1.1,56.1732,10.18927,62.24707,1.1,195.8203,12,10,1417185833,0.5392456,0.4568787,0.08808899,32.27159,27.01675,17.06533,293.6022,291.3245,20,-0.6182411,-2.173405,-1.109001,1.043752,1.818925,-0.8532495,-0.4077145,-0.7771936,-1.094004,-0.3202922,-0.2633393,0.0960982,0.0.0.0,10.221.79.104,1,0
2014-11-28 15:43:53.789,34,1.133333,56.1732,10.18927,62.24707,1.1,195.8203,12,10,1417185833,0.4528351,0.5438385,0.1233368,30.29677,29.50612,17.3132,298.1846,295.9069,20,-0.05095266,-1.957862,-1.741936,1.095305,1.774657,-0.8985243,-0.2710926,-2.028779,-1.554346,0.06014425,-0.3080587,0.03409144,0.0.0.0,10.221.79.104,1,0
2014-11-28 15:43:53.823,35,1.166667,56.1732,10.18927,62.24707,1.1,195.8203,12,10,1417185833,0.4041901,0.7240143,0.07962036,29.57098,30.74234,16.63567,299.9315,297.6538,20,-0.138209,-1.705767,-2.221537,1.117802,1.731225,-0.9588109,-0.07293087,-1.772635,-2.219647,-0.2145317,-0.1780366,0.07984508,0.0.0.0,10.221.79.104,1,0
2014-11-28 15:43:53.857,36,1.2,56.1732,10.18927,62.24707,1.1,195.8203,12,10,1417185833,0.598175,1.317917,-0.01939392,28.77766,31.97855,15.66071,300.196,297.9182,20,-0.1478819,-0.654695,-2.899041,1.13905,1.712309,-1.006911,-0.2883876,-1.673667,-2.538438,-0.3090687,0.07519453,-0.04639097,0.0.0.0,10.221.79.104,1,0
2014-11-28 15:43:53.889,37,1.233333,56.1732,10.18927,62.24707,1.1,195.8203,12,10,1417185833,0.3244629,1.085495,-0.03395081,25.80698,35.94122,13.61162,302.4598,300.1821,20,-0.8004903,-1.785437,-3.197235,1.218961,1.721095,-1.152867,-0.6649947,-1.541671,-3.022305,0.02000237,0.245004,0.03409163,0.0.0.0,10.221.79.104,1,0
2014-11-28 15:43:53.924,38,1.266667,56.1732,10.18927,62.24707,1.1,195.8203,12,10,1417185833,-0.303894,1.279205,-0.001617432,23.84901,37.70242,12.52096,303.0101,300.7324,20,-0.7895713,-1.850764,-3.081775,1.340066,1.76969,-1.247112,-0.7989126,-2.259861,-3.009921,-0.1505667,0.3741039,-0.03611061,0.0.0.0,10.221.79.104,1,0
2014-11-28 15:43:53.956,39,1.3,56.1732,10.18927,62.24707,1.1,195.8203,12,10,1417185833,0.2394714,1.298584,0.05508423,21.18217,39.73456,12.05826,303.7899,301.5122,20,-1.04283,-1.404012,-4.827313,1.457354,1.842591,-1.315205,-0.7852309,-1.729295,-4.270538,-0.5474308,0.3116913,-0.06948896,0.0.0.0,10.221.79.104,1,0
2014-11-28 15:43:53.990,40,1.333333,56.1732,10.18927,62.24707,1.1,195.8203,12,10,1417185833,0.3228607,0.2608185,0.1150055,15.47711,42.85049,12.35571,308.3844,306.1067,20,-3.960483,-5.806906,-4.516432,2.513974,2.79231,-1.447112,-2.817484,-5.1212,-5.074247,0.335435,-0.6317498,-0.2575983,0.0.0.0,10.221.79.104,1,0
2014-11-28 15:43:54.022,41,1.366667,56.1732,10.18927,62.24707,1.1,195.8203,12,10,1417185833,0.1710205,0.5844269,0.7348328,12.54019,43.69722,12.91756,308.7622,306.4845,20,-0.3685906,1.582591,-2.570291,-3.011882,-2.895345,-1.332566,-2.555728,-2.458213,-3.087615,0.3911733,-0.4680036,-0.08788819,0.0.0.0,10.221.79.104,1,0
2014-11-28 15:43:54.056,42,1.4,56.17318,10.18926,61.45398,1.52,203.2031,12,10,1417185834,0.03334045,0.3903656,0.2751617,9.012512,45.17052,13.49593,302.8041,300.5264,20,1.615178,2.049842,-0.8927049,-2.723529,-2.533991,-1.321748,1.732341,3.57603,-1.305125,0.3008419,-0.5779884,0.4008596,0.0.0.0,10.221.79.104,1,0
2014-11-28 15:43:54.089,43,1.433333,56.17318,10.18926,61.45398,1.52,203.2031,12,10,1417185834,-0.2513123,1.568985,0.03877258,6.278122,45.74631,14.18998,310.2409,307.9632,20,-0.5963156,-3.927342,-1.105755,-2.549691,-2.376868,-1.323446,-0.2425758,-3.676429,-1.108474,0.08985818,-0.2010099,-0.2781226,0.0.0.0,10.221.79.104,1,0
2014-11-28 15:43:54.123,44,1.466667,56.17318,10.18926,61.45398,1.52,203.2031,12,10,1417185834,0.4489899,0.310318,0.4485016,1.889633,46.35594,14.42134,312.6203,310.3426,20,-0.020762,-1.012568,-1.835875,-2.39427,-2.329407,-1.255169,-0.4548135,-1.792676,-3.991964,0.05920311,2.58251,-0.03589438,0.0.0.0,10.221.79.104,1,0
2014-11-28 15:43:54.156,45,1.5,56.17318,10.18926,61.45398,1.52,203.2031,12,10,1417185834,-0.5647125,0.761673,0.376236,0.4380493,46.69461,14.52048,311.6005,309.3228,20,0.02974911,0.899068,0.1275023,-2.340352,-2.291998,-1.234869,-0.04123663,0.6014925,0.462866,0.1467372,-0.4795817,0.4071412,0.0.0.0,10.221.79.104,1,0
2014-11-28 15:43:54.189,46,1.533333,56.17318,10.18926,61.45398,1.52,203.2031,12,10,1417185834,-0.1800995,0.9641113,0.09829712,-0.03456116,46.66074,14.81793,312.0941,309.8163,20,-0.03997325,-0.6648744,-0.3585424,-2.336493,-2.285977,-1.232943,-0.07564789,-1.200177,-0.356974,-0.2726576,-0.05540691,-0.436718,0.0.0.0,10.221.79.104,1,0
2014-11-28 15:43:54.225,47,1.566667,56.17318,10.18926,61.45398,1.52,203.2031,12,10,1417185834,-0.1707306,0.9758301,0.06079102,-0.9797668,46.69461,14.91708,313.9489,311.6712,20,-0.07544229,-0.2858158,-0.2413074,-2.317635,-2.294633,-1.219192,-0.1319169,-0.07195012,-0.2710728,0.1140092,0.08556224,-0.1357559,0.0.0.0,10.221.79.104,1,0
2014-11-28 15:43:54.256,48,1.6,56.17318,10.18926,61.45398,1.52,203.2031,12,10,1417185834,-0.1925812,0.8877106,0.1032104,-0.6759491,46.45753,15.11539,313.9823,311.7046,20,-0.1048156,-0.3026573,-0.2263793,-2.313282,-2.295127,-1.213571,-0.1130011,-0.2833207,-0.2323691,0.06414873,0.01247014,-0.1596097,0.0.0.0,10.221.79.104,1,0
2014-11-28 15:43:54.290,49,1.633333,56.17318,10.18926,61.45398,1.52,203.2031,12,10,1417185834,-0.2667694,1.010193,0.09986877,-0.7434692,46.52527,14.88403,313.2198,310.9421,20,-0.1718852,-0.03845605,-0.2426387,-2.315643,-2.305979,-1.200739,-0.2913413,-0.08772779,-0.1975041,0.0553165,-0.008279998,-0.1413378,0.0.0.0,10.221.79.104,1,0
2014-11-28 15:43:54.323,50,1.666667,56.17318,10.18926,61.45398,1.52,203.2031,12,10,1417185834,-0.2648315,0.9483795,0.1280212,-1.081055,46.25432,14.98318,313.4172,311.1395,20,-0.172253,0.1263795,-0.2815547,-2.318048,-2.310102,-1.190578,-0.2140987,-0.06638311,-0.2373017,0.01750785,0.04131097,-0.1189503,0.0.0.0,10.221.79.104,1,0
2014-11-28 15:43:54.356,51,1.7,56.17318,10.18926,61.45398,1.52,203.2031,12,10,1417185834,-0.2418518,0.9345856,0.1625977,-1.384872,45.88176,15.44589,314.7063,312.4286,20,-0.2345318,0.1905332,-0.2991023,-2.316569,-2.305475,-1.179665,-0.2185316,0.1899965,-0.2834636,0.02460827,-0.003000044,-0.128195,0.0.0.0,10.221.79.104,1,0
2014-11-28 15:43:54.389,52,1.733333,56.17318,10.18926,61.45398,1.52,203.2031,12,10,1417185834,-0.1915741,1.029419,0.2012787,-1.857483,45.88176,15.54504,315.2216,312.9438,20,-0.302811,0.2075585,-0.3908066,-2.31671,-2.299511,-1.167033,-0.3143311,0.1777339,-0.3140275,0.06794319,0.008603065,-0.08466803,0.0.0.0,10.221.79.104,1,0
2014-11-28 15:43:54.423,53,1.766667,56.17318,10.18926,61.45398,1.52,203.2031,12,10,1417185834,-0.1247253,1.303284,0.1273193,-2.347,45.56,15.99122,316.555,314.2773,20,-0.4438081,0.04263428,-0.5267323,-2.317512,-2.293944,-1.150697,-0.4074493,0.1659622,-0.4480413,0.1159424,0.2196878,-0.05062584,0.0.0.0,10.221.79.104,1,0
2014-11-28 15:43:54.456,54,1.8,56.17318,10.18926,61.45398,1.52,203.2031,12,10,1417185834,-0.1032257,1.312363,0.08805847,-3.106537,45.81403,16.27214,317.3826,315.1049,20,-0.178958,-0.3327124,-0.4019754,-2.318228,-2.293244,-1.128762,-0.4170546,-0.1152916,-0.5197451,0.19619,0.3994003,-0.1555377,0.0.0.0,10.221.79.104,1,0
2014-11-28 15:43:54.489,55,1.833333,56.17318,10.18926,61.45398,1.52,203.2031,12,10,1417185834,-0.2337952,1.3134,-0.1730804,-4.034897,45.32294,17.01575,318.3052,316.0275,20,0.3667511,-0.5434178,-0.3764671,-2.31101,-2.296569,-1.113787,-0.08631055,-0.4306378,-0.3373181,0.1973561,0.3913966,-0.2820867,0.0.0.0,10.221.79.104,1,0
2014-11-28 15:43:54.523,56,1.866667,56.17318,10.18926,61.45398,1.52,203.2031,12,10,1417185834,-0.4292603,1.258987,-0.2841492,-4.423111,45.71245,17.03228,317.9575,315.6798,20,1.136128,-0.04637815,-0.4130166,-2.238964,-2.253158,-1.116224,0.9274493,-0.1082417,-0.3462009,-0.046979,0.3767281,-0.518243,0.0.0.0,10.221.79.104,1,0
2014-11-28 15:43:54.556,57,1.9,56.17318,10.18926,61.45398,1.52,203.2031,12,10,1417185834,-0.4302673,1.229126,-0.2909393,-4.625671,45.88177,16.73483,317.3647,315.0869,20,1.670692,-0.01220846,-0.5577008,-2.213073,-2.230428,-1.119998,1.098571,-0.04388323,-0.4040788,-0.08497497,0.3588878,-0.5511478,0.0.0.0,10.221.79.104,1,0
2014-11-28 15:43:54.589,58,1.933333,56.17318,10.18926,61.45398,1.52,203.2031,12,10,1417185834,-0.4329376,1.035034,-0.1486511,-5.418991,46.98251,14.73531,318.0965,315.8188,20,2.616867,0.3864636,-0.55852,-1.97731,-2.010666,-1.144212,2.460874,0.3323386,-0.6857497,-0.1027358,0.159455,-0.3948937,0.0.0.0,10.221.79.104,1,0
2014-11-28 15:43:54.624,59,1.966667,56.17318,10.18926,61.45398,1.52,203.2031,12,10,1417185834,-0.4969177,1.192093,0.3440704,-5.908463,47.84618,12.63664,319.8596,317.5819,20,2.798768,0.5482522,-0.1249584,-1.772817,-1.809765,-1.159245,2.676326,0.5375604,-0.2282262,-0.08928736,0.1801478,-0.01807323,0.0.0.0,10.221.79.104,1,0
2014-11-28 15:43:54.656,60,2,56.17318,10.18926,61.45398,1.52,203.2031,12,10,1417185834,-0.4584198,1.145935,0.4833832,-6.701782,48.70984,10.37272,318.4517,316.174,20,2.680467,0.5111573,-0.02021792,-1.625592,-1.662687,-1.166873,2.785611,0.5781717,-0.04207207,-0.08384873,0.2810508,0.4132757,0.0.0.0,10.221.79.104,1,0
2014-11-28 15:43:54.743,61,2.033334,56.17318,10.18926,61.45398,1.52,203.2031,12,10,1417185834,-0.1262207,1.034821,0.01280212,-7.292526,51.26695,-1.244347,319.7217,317.444,20,2.734425,-0.7512721,0.8842968,-1.078322,-1.144288,-1.151117,2.509561,-0.5572692,0.7882769,0.2799307,0.1902348,0.1178468,0.0.0.0,10.221.79.104,1,0
2014-11-28 15:43:54.753,62,2.066667,56.17318,10.18926,61.45398,1.52,203.2031,12,10,1417185834,-0.1262207,1.034821,0.01280212,-7.292526,51.26695,-1.244347,319.7217,317.444,20,2.729817,-0.5377207,0.8673335,-1.078322,-1.144288,-1.151117,2.509561,-0.5572692,0.7882769,0.2799307,0.1902348,0.1178468,0.0.0.0,10.221.79.104,1,0
2014-11-28 15:43:54.759,63,2.1,56.17318,10.18926,61.45398,1.52,203.2031,12,10,1417185834,-0.1262207,1.034821,0.01280212,-7.292526,51.26695,-1.244347,319.7217,317.444,20,2.729817,-0.5377207,0.8673335,-1.078322,-1.144288,-1.151117,2.509561,-0.5572692,0.7882769,0.2799307,0.1902348,0.1178468,0.0.0.0,10.221.79.104,1,0
2014-11-28 15:43:54.789,64,2.133333,56.17318,10.18926,61.45398,1.52,203.2031,12,10,1417185834,-0.2006226,0.8960876,-0.01318359,-6.718643,51.26695,-4.119698,318.9043,316.6266,20,2.298109,-0.8342264,0.8246865,-0.8067229,-0.9221249,-1.12693,2.341585,-0.572964,0.8631577,0.1480885,0.02080639,0.2549779,0.0.0.0,10.221.79.104,1,0
2014-11-28 15:43:54.822,65,2.166667,56.17318,10.18926,61.45398,1.52,203.2031,12,10,1417185834,-0.1770935,0.7024231,0.03826904,-5.267059,51.47017,-9.672089,313.9587,311.681,20,2.28455,-1.8633,0.8101445,-0.643381,-0.8098843,-1.100348,2.255603,-1.504924,0.8457848,0.145915,-0.1101,0.2881332,0.0.0.0,10.221.79.104,1,0
2014-11-28 15:43:54.856,66,2.2,56.17318,10.18926,61.45398,1.52,203.2031,12,10,1417185834,-0.1697388,0.6106415,0.05281067,-4.625671,51.02988,-12.58048,310.4149,308.1371,20,1.875836,-2.295309,0.7465435,-0.5004698,-0.7478818,-1.068641,2.036671,-2.259562,0.764214,0.1575983,-0.2659056,0.4056785,0.0.0.0,10.221.79.104,1,0
2014-11-28 15:43:54.889,67,2.233333,56.17318,10.18926,61.45398,1.52,203.2031,12,10,1417185834,-0.1845398,0.4439392,0.04051208,-4.355606,50.28476,-14.69567,307.4714,305.1937,20,1.204457,-1.851233,0.8952354,-0.3902604,-0.7233445,-1.045378,1.419546,-2.120431,0.8196363,0.1719253,-0.371996,0.411913,0.0.0.0,10.221.79.104,1,0
2014-11-28 15:43:54.922,68,2.266667,56.17318,10.18926,61.45398,1.52,203.2031,12,10,1417185834,-0.227417,0.4137115,-0.06707764,-3.444138,49.03159,-18.52948,299.2743,296.9966,20,0.3953252,-0.9947852,1.054023,-0.3053308,-0.701699,-1.041946,0.6245196,-1.253318,1.011119,0.0974941,-0.4391782,0.3737752,0.0.0.0,10.221.79.104,1,0
2014-11-28 15:43:54.955,69,2.3,56.17318,10.18926,61.45398,1.52,203.2031,12,10,1417185834,-0.1739502,0.5290985,-0.3851929,-2.954636,48.47275,-19.53751,295.4756,293.1978,20,-0.4251769,-0.3041125,1.220224,-0.2446275,-0.6747862,-1.060787,-0.2010968,-0.5137992,1.174947,0.1042242,-0.4587234,0.2604062,0.0.0.0,10.221.79.104,1,0
2014-11-28 15:43:54.991,70,2.333333,56.17318,10.18926,61.45398,1.52,203.2031,12,10,1417185834,-0.4440155,0.9108887,-0.9724121,-2.093842,48.3542,-19.68623,292.9234,290.6457,20,-0.5607685,-0.09585515,1.072104,-0.1880938,-0.6289771,-1.115658,-0.8025753,0.1748727,1.283944,-0.05911714,-0.1931832,-0.3368591,0.0.0.0,10.221.79.104,1,0
2014-11-28 15:43:55.022,71,2.366667,56.17317,10.18926,61.45813,1.46,198.9844,12,10,1417185835,-0.5040283,1.195602,-1.300858,0.2691956,48.72676,-19.32268,285.3777,283.1,20,0.5715961,-1.60626,0.2964183,-0.1458966,-0.5934528,-1.151384,-0.3323728,-0.5391036,0.9002204,-0.2336341,0.1308154,-0.7811795,0.0.0.0,10.221.79.104,1,0
2014-11-28 15:43:55.056,72,2.4,56.17317,10.18926,61.45813,1.46,198.9844,12,10,1417185835,-0.4567108,1.464081,-0.7595978,0.7586975,48.84529,-19.04176,284.5135,282.2358,20,0.8613129,-1.853678,-0.09376005,-0.1156172,-0.5914542,-1.154177,0.5340794,-1.603727,0.30519,-0.3401792,0.4444397,-1.008018,0.0.0.0,10.221.79.104,1,0
2014-11-28 15:43:55.090,73,2.433333,56.17317,10.18926,61.45813,1.46,198.9844,12,10,1417185835,-0.698822,0.6547699,-0.3828888,1.113129,48.86223,-19.28963,283.4354,281.1577,20,1.387688,-1.718815,0.1278863,-0.06567202,-0.6182837,-1.121565,1.241443,-1.376319,-0.06650185,-0.2380555,0.09082653,-0.3123204,0.0.0.0,10.221.79.104,1,0
2014-11-28 15:43:55.123,74,2.466667,56.17317,10.18926,61.45813,1.46,198.9844,12,10,1417185835,-0.3394165,1.067581,-0.6235657,1.146896,48.65901,-20.08282,283.3755,281.0978,20,0.3088335,-1.623662,0.1789032,-0.007089274,-0.6183397,-1.08943,1.048249,-1.853509,0.1631417,-0.520858,-0.1773485,0.134405,0.0.0.0,10.221.79.104,1,0
2014-11-28 15:43:55.156,75,2.5,56.17317,10.18926,61.45813,1.46,198.9844,12,10,1417185835,-0.4708099,1.525726,-0.3092804,0.7249298,48.37112,-20.99169,283.1918,280.9141,20,-0.03341921,0.4949844,0.09897185,0.0219717,-0.643612,-1.082192,0.2860869,-1.053965,0.3846676,-0.05773835,0.1845925,-0.2480816,0.0.0.0,10.221.79.104,1,0
2014-11-28 15:43:55.189,76,2.533334,56.17317,10.18926,61.45813,1.46,198.9844,12,10,1417185835,-0.3096619,0.4566193,1.14537,-0.1190186,47.45667,-22.67723,278.8427,276.5649,20,-0.4977597,0.8759478,-0.4883351,0.03137465,-0.6335126,-1.083968,-0.08640676,-0.06693927,-0.3849021,-0.5784495,0.5269609,0.1424109,0.0.0.0,10.221.79.104,1,0
2014-11-28 15:43:55.223,77,2.566667,56.17317,10.18926,61.45813,1.46,198.9844,12,10,1417185835,-0.3230591,0.4721375,-0.01733398,-0.3046722,47.37198,-22.95816,277.9454,275.6677,20,-1.872113,1.040573,0.431076,-0.01315108,-0.6546448,-1.088888,-1.092116,1.3465,0.007311166,-0.04592808,-0.7319374,1.439783,0.0.0.0,10.221.79.104,1,0
2014-11-28 15:43:55.257,78,2.6,56.17317,10.18926,61.45813,1.46,198.9844,12,10,1417185835,0.04766846,1.110291,0.9924164,-0.0008544922,47.6768,-22.09887,279.1038,276.8261,20,-3.635578,4.88586,0.4353411,-0.07391034,-0.6682082,-1.141848,-2.269878,2.010687,0.3624466,-0.06536628,-0.4372661,0.3091314,0.0.0.0,10.221.79.104,1,0
2014-11-28 15:43:55.290,79,2.633333,56.17317,10.18926,61.45813,1.46,198.9844,12,10,1417185835,-0.1546936,1.582153,-0.326889,1.754562,48.65901,-17.53798,278.6671,276.3894,20,-2.270791,1.322532,0.238456,-0.3559686,-0.7240772,-1.294749,-2.718239,2.169423,0.2835253,0.0258587,0.620013,-0.1227153,0.0.0.0,10.221.79.104,1,0
2014-11-28 15:43:55.323,80,2.666667,56.17317,10.18926,61.45813,1.46,198.9844,12,10,1417185835,-0.08909607,0.6829987,0.07423401,3.104858,49.60735,-14.33214,277.2517,274.974,20,-2.61785,1.268067,0.1486481,-0.5604721,-0.8807668,-1.35438,-2.570648,1.243836,0.2112207,0.09483574,-0.1826975,0.2167517,0.0.0.0,10.221.79.104,1,0
2014-11-28 15:43:55.357,81,2.7,56.17317,10.18926,61.45813,1.46,198.9844,12,10,1417185835,-0.1715393,0.7070618,0.07467651,4.185104,50.11539,-10.36614,283.7809,281.5032,20,-2.508081,0.9480851,0.0123363,-0.6644093,-0.9690481,-1.372789,-2.655365,1.2706,0.1574192,0.07306641,-0.2974618,0.185592,0.0.0.0,10.221.79.104,1,0
2014-11-28 15:43:55.389,82,2.733334,56.17317,10.18926,61.45813,1.46,198.9844,12,10,1417185835,-0.1496887,1.080246,-0.03643799,5.096573,50.52182,-3.128197,288.203,285.9253,20,-1.979959,0.3354323,-0.02526381,-1.366988,-1.612884,-1.411554,-2.087641,0.5266364,-0.04245803,-0.005144907,-0.01008338,-0.00468827,0.0.0.0,10.221.79.104,1,0
2014-11-28 15:43:55.422,83,2.766667,56.17317,10.18926,61.45813,1.46,198.9844,12,10,1417185835,-0.06338501,0.9421234,0.05709839,5.045929,50.30167,-0.3024216,288.4469,286.1692,20,-1.971133,0.4808548,-0.1032191,-1.737986,-1.968711,-1.396034,-1.961284,0.2950819,-0.09377827,0.09254039,0.007862103,-0.04096271,0.0.0.0,10.221.79.104,1,0
2014-11-28 15:43:55.456,84,2.8,56.17317,10.18926,61.45813,1.46,198.9844,12,10,1417185835,-0.1629944,0.9111786,0.01397705,4.92778,49.97992,2.622505,288.9779,286.7002,20,-1.93981,0.9027562,-0.1570663,-1.939052,-2.154911,-1.374167,-2.040843,0.6859581,-0.05270118,0.09784927,-0.07927183,-0.06824645,0.0.0.0,10.221.79.104,1,0
2014-11-28 15:43:55.489,85,2.833333,56.17317,10.18926,61.45813,1.46,198.9844,12,10,1417185835,-0.0730896,0.8684692,0.1977234,4.33699,49.2856,7.827873,294.3174,292.0396,20,-1.89077,0.9785343,-0.2926633,-2.188231,-2.360811,-1.31499,-1.849468,0.7874594,-0.264108,-0.07667238,-0.06780137,-0.1274635,0.0.0.0,10.221.79.104,1,0
2014-11-28 15:43:55.523,86,2.866667,56.17317,10.18926,61.45813,1.46,198.9844,12,10,1417185835,0.03327942,0.9184418,0.1787262,3.898148,48.5405,10.43882,296.3727,294.0949,20,-1.847962,1.500625,-0.1641242,-2.317132,-2.446807,-1.26289,-1.980825,1.475165,-0.2114742,0.1688207,-0.05384589,-0.04709675,0.0.0.0,10.221.79.104,1,0
2014-11-28 15:43:55.556,87,2.9,56.17317,10.18926,61.45813,1.46,198.9844,12,10,1417185835,-0.2663727,0.9967041,-0.01446533,3.341156,47.84616,12.76884,299.5896,297.3119,20,-1.413904,1.190632,-0.04855528,-2.417654,-2.49438,-1.216762,-1.587094,1.427414,-0.01999434,0.1557097,0.004782668,-0.1689384,0.0.0.0,10.221.79.104,1,0
2014-11-28 15:43:55.590,88,2.933333,56.17317,10.18926,61.45813,1.46,198.9844,12,10,1417185835,-0.342926,1.019257,0.06896973,2.581604,47.08411,15.06582,302.9198,300.6421,20,-1.35796,1.207971,-0.2183025,-2.483243,-2.520011,-1.179347,-1.320838,1.058301,-0.1690126,-0.1056021,0.1011097,-0.2462934,0.0.0.0,10.221.79.104,1,0
2014-11-28 15:43:55.623,89,2.966667,56.17317,10.18926,61.45813,1.46,198.9844,12,10,1417185835,-0.2303467,1.204208,-0.001159668,0.7586975,45.35678,18.53607,310.1743,307.8966,20,-1.324077,0.9432302,-0.2685907,-2.535418,-2.530736,-1.137954,-1.46237,1.022287,-0.2319174,-0.06063831,0.1749256,-0.3452762,0.0.0.0,10.221.79.104,1,0
2014-11-28 15:43:55.656,90,3,56.17317,10.18926,61.45813,1.46,198.9844,12,10,1417185835,-0.1245575,1.274872,0.1193085,-0.06838989,44.73021,19.97374,312.5738,310.2961,20,-0.8217288,1.730986,-0.3288932,-2.569412,-2.522948,-1.100517,-1.005971,1.619242,-0.3294413,0.1729131,0.4196849,-0.2854894,0.0.0.0,10.221.79.104,1,0
2014-11-28 15:43:55.690,91,3.033334,56.17317,10.18926,61.45813,1.46,198.9844,12,10,1417185835,0.004959106,1.367493,0.1164551,-1.249908,44.0867,21.26269,316.4608,314.1831,20,-0.2250134,0.6896213,-0.134908,-2.576518,-2.466092,-1.070251,-0.2099938,1.03343,-0.4406054,0.2905872,0.4348736,-0.2950308,0.0.0.0,10.221.79.104,1,0
2014-11-28 15:43:55.726,92,3.066667,56.17317,10.18926,61.45813,1.46,198.9844,12,10,1417185835,0.06019592,1.47023,-0.1643829,-3.477921,43.27382,22.58469,324.6819,322.4042,20,0.1691682,0.6633013,-0.3279121,-2.575624,-2.44129,-1.060301,-0.316892,0.7413423,-0.09389016,0.2100104,0.5335949,-0.366717,0.0.0.0,10.221.79.104,1,0
2014-11-28 15:43:55.756,93,3.1,56.17317,10.18926,61.45813,1.46,198.9844,12,10,1417185835,0.1559601,1.466049,-0.1210022,-4.473755,43.18915,22.73341,326.5296,324.2519,20,0.4306281,0.6061488,-0.1751036,-2.56967,-2.420566,-1.055312,0.1316569,0.6658345,-0.3191417,0.3856239,0.6001758,-0.534656,0.0.0.0,10.221.79.104,1,0
2014-11-28 15:43:55.789,94,3.133333,56.17317,10.18926,61.45813,1.46,198.9844,12,10,1417185835,-0.581955,1.095703,-0.3830414,-5.452744,43.35847,22.23766,328.1403,325.8625,20,2.866846,0.4305269,0.1066604,-2.518516,-2.348701,-1.083171,1.742381,0.6441044,0.1762824,0.1077451,0.3569391,-0.6817902,0.0.0.0,10.221.79.104,1,0
2014-11-28 15:43:55.824,95,3.166667,56.17317,10.18926,61.45813,1.46,198.9844,12,10,1417185835,-0.6867371,1.270462,0.3969116,-6.161667,44.06973,21.27921,328.808,326.5302,20,3.632363,0.637145,0.1127124,-2.376845,-2.206124,-1.141842,3.216675,0.3511287,0.08310416,-0.3343483,0.1578292,-0.5955793,0.0.0.0,10.221.79.104,1,0
2014-11-28 15:43:55.855,96,3.2,56.17317,10.18926,61.45813,1.46,198.9844,12,10,1417185835,-0.6123047,1.447998,0.848938,-6.600525,44.98419,19.36231,331.6276,329.3499,20,2.843129,1.932919,0.4148891,-2.130399,-1.958956,-1.200636,3.436786,0.9957649,0.2108871,-0.3137383,0.4470945,0.5875797,0.0.0.0,10.221.79.104,1,0
2014-11-28 15:43:55.890,97,3.233334,56.17317,10.18926,61.45813,1.46,198.9844,12,10,1417185835,-0.6966705,1.235779,-0.1369476,-7.613266,47.89694,14.00821,334.1395,331.8618,20,2.410709,1.525691,0.8102556,-1.878691,-1.666842,-1.236128,2.54547,2.074051,0.572449,-0.3274006,0.4040067,0.4210773,0.0.0.0,10.221.79.104,1,0
2014-11-28 15:43:55.922,98,3.266667,56.17317,10.18926,61.45813,1.46,198.9844,12,10,1417185835,-0.4354401,1.146332,0.01269531,-7.697662,49.40411,10.58754,336.3357,334.058,20,2.635426,0.6600791,0.7772446,-1.633694,-1.382823,-1.257256,2.467421,1.14539,0.8542985,-0.4433273,0.2892919,-0.1459167,0.0.0.0,10.221.79.104,1,0
2014-11-28 15:43:55.966,99,3.3,56.17317,10.18926,61.45813,1.46,198.9844,12,10,1417185835,-0.09965515,1.083099,0.279953,-7.292557,50.8266,6.952042,337.5483,335.2706,20,3.031227,-1.863261,1.194786,-1.352181,-1.094855,-1.255386,2.683252,-0.03429223,0.969797,0.04344642,0.154174,0.2928706,0.0.0.0,10.221.79.104,1,0
2014-11-28 15:43:55.989,100,3.333333,56.17317,10.18926,61.45813,1.46,198.9844,12,10,1417185835,-0.1427002,0.7820129,0.03926086,-5.689072,52.63863,-0.07107544,333.8082,331.5305,20,2.953494,-0.5072145,0.6409584,-1.047282,-0.8522545,-1.232342,3.180833,-1.116234,0.9495301,0.1081561,-0.1206371,0.395512,0.0.0.0,10.221.79.104,1,0
2014-11-28 15:43:56.022,101,3.366667,56.17315,10.18924,61.48468,1.49,204.6094,16,10,1417185836,0.0304718,0.7157593,0.08757019,-4.625702,52.68944,-3.723083,328.9677,326.69,20,3.068092,-2.30725,0.4022548,-0.7078382,-0.587598,-1.132902,3.018297,-1.888742,0.4220105,0.1982493,-0.1482307,0.4183116,0.0.0.0,10.221.79.104,1,0
2014-11-28 15:43:56.056,102,3.4,56.17315,10.18924,61.48468,1.49,204.6094,16,10,1417185836,0.03970337,0.5745087,0.1200867,-3.680481,52.75716,-7.127243,327.5228,325.2451,20,2.606382,-2.613913,0.5022975,-0.6591609,-0.5673419,-1.108184,3.030526,-2.304675,0.4108856,0.270303,-0.1791306,0.4639384,0.0.0.0,10.221.79.104,1,0
2014-11-28 15:43:56.091,103,3.433333,56.17315,10.18924,61.48468,1.49,204.6094,16,10,1417185836,-0.1575623,0.3804474,0.2615204,-3.494827,51.55481,-13.58851,321.7133,319.4355,20,1.373255,-2.948732,0.7703593,-0.4736357,-0.5547032,-1.015448,1.73337,-3.150973,0.6674507,0.1201298,-0.4692696,0.7097035,0.0.0.0,10.221.79.104,1,0
2014-11-28 15:43:56.124,104,3.466667,56.17315,10.18924,61.48468,1.49,204.6094,16,10,1417185836,-0.2950134,0.1432953,0.2895813,-3.494827,50.77582,-15.90201,316.965,314.6873,20,-0.03951039,-1.428719,0.9420461,-0.399961,-0.5753145,-1.002648,0.4325778,-1.997122,0.9096373,0.0007264133,-0.6696047,0.767845,0.0.0.0,10.221.79.104,1,0
2014-11-28 15:43:56.157,105,3.5,56.17315,10.18924,61.48468,1.49,204.6094,16,10,1417185836,-0.1985168,0.2544556,-0.04394531,-3.613007,49.97992,-17.50493,311.9644,309.6866,20,-1.056399,-0.5942919,1.060572,-0.3837134,-0.5782099,-1.007684,-0.07707532,-1.426144,0.9506768,-0.003266793,-0.7023026,0.7366251,0.0.0.0,10.221.79.104,1,0
2014-11-28 15:43:56.189,106,3.533334,56.17315,10.18924,61.48468,1.49,204.6094,16,10,1417185836,-0.9296417,1.215836,-1.790497,-2.819672,49.52269,-18.2816,304.7787,302.501,20,-0.4255795,1.552741,0.3455814,-0.3617956,-0.5669753,-1.087298,-1.145357,1.193505,0.7243932,-0.5238958,-0.2516,-0.6853902,0.0.0.0,10.221.79.104,1,0
2014-11-28 15:43:56.223,107,3.566667,56.17315,10.18924,61.48468,1.49,204.6094,16,10,1417185836,-0.7817841,1.614395,-1.656631,-2.600266,49.53963,-18.33118,302.1894,299.9117,20,1.067708,-1.867344,-0.7178098,-0.3566022,-0.5334843,-1.0846,0.8735199,-0.5556482,-0.4943838,-0.7384371,0.552727,-1.395975,0.0.0.0,10.221.79.104,1,0
2014-11-28 15:43:56.256,108,3.6,56.17315,10.18924,61.48468,1.49,204.6094,16,10,1417185836,-0.2515106,1.268875,-0.8752289,-2.465225,49.67511,-18.49643,303.4702,301.1925,20,0.9526814,-1.996758,-0.2055159,-0.3579951,-0.59987,-1.049162,0.8236077,-2.28724,-0.4197624,-0.0112653,0.8931717,-0.6601726,0.0.0.0,10.221.79.104,1,0
2014-11-28 15:43:56.290,109,3.633333,56.17315,10.18924,61.48468,1.49,204.6094,16,10,1417185836,-0.5561523,0.1231384,-0.2023315,-2.752167,50.03073,-18.31465,303.3993,301.1216,20,0.6938669,-1.649744,0.2013592,-0.3292083,-0.6314349,-1.023089,0.9000468,-1.521004,0.0783022,-0.1493058,-0.5241611,-0.1491026,0.0.0.0,10.221.79.104,1,0
2014-11-28 15:43:56.323,110,3.666667,56.17315,10.18924,61.48468,1.49,204.6094,16,10,1417185836,-0.8778992,0.7387695,0.3684387,-4.034958,49.99687,-19.80191,301.4218,299.144,20,-0.4153889,-0.5144468,0.09585515,-0.2971675,-0.6484823,-1.015301,0.1708509,-0.9669642,0.3067372,-0.4535633,-0.4265741,0.4780646,0.0.0.0,10.221.79.104,1,0
2014-11-28 15:43:56.356,111,3.7,56.17315,10.18924,61.48468,1.49,204.6094,16,10,1417185836,-1.082184,1.704971,-0.8234253,-4.575089,49.86139,-20.00021,300.5977,298.32,20,0.09682535,1.309022,-0.2941925,-0.3166525,-0.6660753,-1.029005,-0.4434972,0.8429856,-0.1497902,-0.7982311,0.007150933,0.002860181,0.0.0.0,10.221.79.104,1,0
2014-11-28 15:43:56.391,112,3.733334,56.17315,10.18924,61.48468,1.49,204.6094,16,10,1417185836,0.5557098,0.6056061,1.191055,-5.081467,49.86139,-20.03326,299.6354,297.3577,20,-1.8521,1.259703,0.2228142,-0.3517163,-0.6919272,-1.020921,-0.5022603,-0.8420484,-0.5873005,0.6361682,0.3631394,0.9317701,0.0.0.0,10.221.79.104,1,0
2014-11-28 15:43:56.426,113,3.766667,56.17315,10.18924,61.48468,1.49,204.6094,16,10,1417185836,-0.2027283,0.5727539,0.5647736,-5.368393,50.1154,-18.9922,301.642,299.3643,20,-3.08314,2.98795,0.5640423,-0.4163352,-0.7171186,-1.062911,-2.349856,1.848799,0.4751226,0.09094087,-0.6468613,1.02846,0.0.0.0,10.221.79.104,1,0
2014-11-28 15:43:56.456,114,3.8,56.17315,10.18924,61.48468,1.49,204.6094,16,10,1417185836,-0.1056061,1.186798,0.7156677,-4.710129,50.53877,-16.92657,302.0909,299.8132,20,-3.532485,3.897339,0.6032206,-0.4827701,-0.7221269,-1.115449,-3.120703,2.990525,0.5726725,0.08795483,-0.3253543,0.8947811,0.0.0.0,10.221.79.104,1,0
2014-11-28 15:43:56.491,115,3.833333,56.17315,10.18924,61.48468,1.49,204.6094,16,10,1417185836,-0.1022339,1.552277,-0.2687531,-4.018097,51.13147,-14.03469,302.9203,300.6425,20,-2.921942,1.123984,0.3308948,-0.7164705,-0.7851054,-1.249598,-3.641856,2.718009,0.5529291,0.07963143,0.7013497,-0.03014692,0.0.0.0,10.221.79.104,1,0
2014-11-28 15:43:56.522,116,3.866667,56.17315,10.18924,61.48468,1.49,204.6094,16,10,1417185836,-0.1273346,0.8500366,0.0958252,-3.157288,51.79192,-10.58097,305.529,303.2513,20,-2.616196,0.715095,0.2495667,-0.9581459,-0.9735691,-1.322198,-2.835861,0.747512,0.2797047,0.1072939,0.09775841,0.1484199,0.0.0.0,10.221.79.104,1,0
2014-11-28 15:43:56.558,117,3.9,56.17315,10.18924,61.48468,1.49,204.6094,16,10,1417185836,-0.2376404,0.7688141,0.09976196,-2.144547,52.26608,-6.482773,305.633,303.3553,20,-2.744691,1.222505,0.2571338,-1.166529,-1.162439,-1.355017,-2.653758,0.7176697,0.2581967,0.06916883,-0.1267732,0.1808481,0.0.0.0,10.221.79.104,1,0
2014-11-28 15:43:56.591,118,3.933334,56.17315,10.18924,61.48468,1.49,204.6094,16,10,1417185836,-0.1335907,0.8470612,-0.02134705,-0.9967957,52.23222,1.283958,310.7016,308.4239,20,-2.470737,1.156848,0.1336079,-1.753467,-1.686242,-1.383641,-2.853688,1.468734,0.2215672,-0.09975077,-0.1994871,0.06012553,0.0.0.0,10.221.79.104,1,0
2014-11-28 15:43:56.622,119,3.966667,56.17315,10.18924,61.48468,1.49,204.6094,16,10,1417185836,-0.0153656,0.9727173,0.1639557,-0.9292755,51.99513,4.555908,311.1156,308.8379,20,-2.112609,1.555821,0.08096782,-2.164952,-2.051134,-1.364367,-2.315201,1.079374,0.1388526,0.196451,-0.03119824,-0.04273907,0.0.0.0,10.221.79.104,1,0
2014-11-28 15:43:56.690,120,4,56.17315,10.18924,61.48468,1.49,204.6094,16,10,1417185836,-0.315567,0.8811035,0.1600952,-1.688812,49.13321,13.56202,318.5945,316.3167,20,-1.558743,1.852434,-0.152728,-2.686602,-2.425366,-1.256722,-1.669737,2.113861,-0.05321685,0.03617333,-0.07574709,-0.1191812,0.0.0.0,10.221.79.104,1,0
2014-11-28 15:43:56.701,121,4.033334,56.17315,10.18924,61.48468,1.49,204.6094,16,10,1417185836,-0.315567,0.8811035,0.1600952,-1.688812,49.13321,13.56202,318.5945,316.3167,20,-1.558743,1.852434,-0.152728,-2.686602,-2.425366,-1.256722,-1.669737,2.113861,-0.05321685,0.03617333,-0.07574709,-0.1191812,0.0.0.0,10.221.79.104,1,0
2014-11-28 15:43:56.723,122,4.066667,56.17315,10.18924,61.48468,1.49,204.6094,16,10,1417185836,-0.3729248,0.8748779,0.2211304,-2.228943,48.35423,15.90857,323.6029,321.3252,20,-1.664384,0.7093008,-0.3341559,-2.71923,-2.435573,-1.242848,-1.596303,1.855008,-0.1440983,-0.1065844,-0.06560164,-0.08500806,0.0.0.0,10.221.79.104,1,0
2014-11-28 15:43:56.756,123,4.1,56.17315,10.18924,61.48468,1.49,204.6094,16,10,1417185836,-0.09104919,1.045334,0.1700592,-3.022263,47.35509,17.97419,327.6366,325.3589,20,-1.698095,1.036851,-0.4067518,-2.796307,-2.47871,-1.19559,-1.757989,0.428622,-0.3881933,-0.09662431,-0.04327064,-0.08940797,0.0.0.0,10.221.79.104,1,0
2014-11-28 15:43:56.791,124,4.133334,56.17315,10.18924,61.48468,1.49,204.6094,16,10,1417185836,-0.06170654,1.220932,-0.1336975,-5.115219,45.18747,21.37833,333.5223,331.2446,20,-1.317716,1.388404,-0.2905224,-2.894049,-2.50313,-1.112376,-1.545867,1.60623,-0.2505397,0.2784415,0.1983857,-0.4213071,0.0.0.0,10.221.79.104,1,0
2014-11-28 15:43:56.823,125,4.166667,56.17315,10.18924,61.48468,1.49,204.6094,16,10,1417185836,-0.108551,1.30246,-0.07066345,-6.296753,44.34076,22.89863,336.691,334.4133,20,-0.8764064,1.062859,-0.2504722,-2.929044,-2.495157,-1.075255,-1.034768,1.001101,-0.2940318,0.1778687,0.4227481,-0.4502305,0.0.0.0,10.221.79.104,1,0
2014-11-28 15:43:56.866,126,4.2,56.17315,10.18924,61.48468,1.49,204.6094,16,10,1417185836,0.06828308,1.478287,-0.3894348,-10.11136,41.80058,26.00532,350.889,348.6113,20,0.5123389,0.5194845,-0.5738904,-2.939298,-2.442278,-1.039018,0.134479,-0.3003738,-0.4837779,-0.0273945,0.4694533,-0.6209907,0.0.0.0,10.221.79.104,1,0
2014-11-28 15:43:56.911,127,4.233334,56.17315,10.18924,61.48468,1.49,204.6094,16,10,1417185836,0.06828308,1.478287,-0.3894348,-10.11136,41.80058,26.00532,350.889,348.6113,20,0.5123389,0.5194845,-0.5738904,-2.939298,-2.442278,-1.039018,0.134479,-0.3003738,-0.4837779,-0.0273945,0.4694533,-0.6209907,0.0.0.0,10.221.79.104,1,0
2014-11-28 15:43:56.923,128,4.266667,56.17315,10.18924,61.48468,1.49,204.6094,16,10,1417185836,0.06828308,1.478287,-0.3894348,-10.11136,41.80058,26.00532,350.889,348.6113,20,0.9904557,0.9153034,-0.4903854,-2.913647,-2.417112,-1.035957,0.4748083,0.5221074,-0.5653815,0.2583667,0.5242473,-0.7733657,0.0.0.0,10.221.79.104,1,0
2014-11-28 15:43:56.959,129,4.3,56.17315,10.18924,61.48468,1.49,204.6094,16,10,1417185836,-0.2756042,1.025757,-0.5071564,-11.90053,41.73285,25.41042,354.7476,352.4699,20,2.586023,0.5193436,-0.2406014,-2.870049,-2.359446,-1.046413,1.411037,1.081608,-0.2716306,0.4388333,0.4422894,-0.5025524,0.0.0.0,10.221.79.104,1,0
2014-11-28 15:43:56.990,130,4.333333,56.17315,10.18924,61.48468,1.49,204.6094,16,10,1417185836,-0.08653259,1.102036,-0.1036987,-12.86263,42.46101,24.30325,355.6049,353.3272,20,2.586023,0.5193436,-0.2406014,-2.840961,-2.32401,-1.05777,1.832349,0.8864142,-0.1619928,0.264008,0.23976,-0.6068303,0.0.0.0,10.221.79.104,1,0
2014-11-28 15:43:57.022,131,4.366667,56.17315,10.18924,61.48468,1.49,204.6094,16,10,1417185836,-0.3747101,1.715057,0.8881378,-13.9935,45.15359,19.95719,358.3404,356.0627,20,2.91925,0.2461067,0.7825478,-2.484347,-1.981218,-1.175246,2.998847,-0.0506127,0.9016563,0.2916561,0.8782714,0.5624467,0.0.0.0,10.221.79.104,1,0
2014-11-28 15:43:57.056,132,4.4,56.17315,10.18924,61.48468,1.49,204.6094,16,10,1417185836,-0.6772003,1.412338,-0.05526733,-14.12854,46.91478,17.28014,358.2487,355.9709,20,2.564821,0.2095964,0.7755607,-2.272479,-1.770789,-1.22616,2.582806,0.4957215,0.7980741,-0.2359116,0.478342,0.09071816,0.0.0.0,10.221.79.104,1,0
2014-11-28 15:43:57.089,133,4.433333,56.17315,10.18924,61.48468,1.49,204.6094,16,10,1417185836,-0.598465,1.373886,0.05941772,-13.92599,48.64211,13.90904,358.1279,355.8502,20,2.519795,0.5799118,0.7103961,-2.030884,-1.53664,-1.256811,2.521235,0.1968421,0.7013996,-0.4755545,0.4195256,-0.05787337,0.0.0.0,10.221.79.104,1,0
2014-11-28 15:43:57.125,134,4.466667,56.17315,10.18924,61.48468,1.49,204.6094,16,10,1417185836,-0.01245117,1.162811,0.181778,-12.32249,51.5379,7.447769,354.209,351.9313,20,1.812837,-0.5035793,1.562606,-1.70439,-1.173334,-1.273516,1.650365,1.907649,1.09578,0.003149288,0.2454014,0.3323933,0.0.0.0,10.221.79.104,1,0
2014-11-28 15:43:57.156,135,4.5,56.17315,10.18924,61.48468,1.49,204.6094,16,10,1417185836,0.03248596,1.088013,0.1397552,-11.03972,52.62172,4.473274,354.0025,351.7248,20,2.520097,-1.73923,1.602031,-1.552409,-1.012081,-1.284412,1.775308,-0.5009565,1.571115,0.2303136,0.1722745,0.2724865,0.0.0.0,10.221.79.104,1,0
2014-11-28 15:43:57.192,136,4.533334,56.17315,10.18924,61.48468,1.49,204.6094,16,10,1417185836,-0.06640625,0.8670807,0.2209167,-9.875061,53.51924,1.2509,352.718,350.4403,20,3.140847,-3.081781,1.250634,-1.093581,-0.6667633,-1.269413,3.55441,-2.68588,1.182426,0.3037892,0.03430058,0.3347678,0.0.0.0,10.221.79.104,1,0
2014-11-28 15:43:57.225,137,4.566667,56.17315,10.18924,61.48468,1.49,204.6094,16,10,1417185836,-0.08226013,0.6581879,0.3130646,-6.769348,54.16275,-5.623489,342.7756,340.4979,20,2.866127,-4.129288,0.8338488,-0.8233067,-0.5113347,-1.21067,3.035352,-3.527881,1.151665,0.106034,-0.06877167,0.5282354,0.0.0.0,10.221.79.104,1,0
2014-11-28 15:43:57.258,138,4.6,56.17315,10.18924,61.48468,1.49,204.6094,16,10,1417185836,-0.1439819,0.4093933,0.3500671,-5.739716,53.73936,-9.11026,337.2447,334.967,20,2.365392,-4.187421,0.5790713,-0.6962219,-0.4769852,-1.165412,2.828527,-4.126626,0.8424475,0.09879714,-0.2607631,0.6634178,0.0.0.0,10.221.79.104,1,0
2014-11-28 15:43:57.292,139,4.633334,56.17315,10.18924,61.48468,1.49,204.6094,16,10,1417185836,-0.2100677,0.1941223,0.1990509,-5.40213,53.40068,-12.61356,329.8003,327.5226,20,0.7904782,-2.004577,0.2330972,-0.5022124,-0.5323384,-1.067172,1.134499,-2.366713,0.2081914,-0.02805022,-0.7042696,0.6936228,0.0.0.0,10.221.79.104,1,0
2014-11-28 15:43:57.323,140,4.666667,56.17315,10.18924,61.48468,1.49,204.6094,16,10,1417185836,-0.2029572,0.2936096,0.06738281,-5.46965,51.91046,-17.47191,317.174,314.8962,20,-0.41366,-1.293525,0.5386475,-0.4701314,-0.5627769,-1.05992,-0.0456304,-1.556634,0.4149283,0.1148113,-0.6301595,0.5567088,0.0.0.0,10.221.79.104,1,0
2014-11-28 15:43:57.357,141,4.7,56.17315,10.18924,61.48468,1.49,204.6094,16,10,1417185836,-0.2901917,0.3755798,-0.03065491,-5.46965,51.91046,-17.47191,317.174,314.8962,20,-1.094326,-0.8166245,0.7275977,-0.4647896,-0.5726281,-1.065954,-0.451259,-1.290862,0.547246,0.1013064,-0.6158817,0.5222374,0.0.0.0,10.221.79.104,1,0
2014-11-28 15:43:57.389,142,4.733334,56.17315,10.18924,61.48468,1.49,204.6094,16,10,1417185836,-0.7091064,0.7038116,-0.7617035,-6.06041,51.45325,-18.74434,311.158,308.8802,20,-0.6980973,-0.4244099,0.4835073,-0.4635296,-0.5998631,-1.104848,-1.208188,-0.6130087,0.7054335,-0.3140771,-0.2935273,-0.1279461,0.0.0.0,10.221.79.104,1,0
2014-11-28 15:43:57.423,143,4.766667,56.17315,10.18924,61.48468,1.49,204.6094,16,10,1417185836,-0.5630951,1.809158,-1.775604,-5.722824,51.45325,-18.57909,306.3003,304.0226,20,1.87465,-1.69797,-0.1793053,-0.4625173,-0.6154993,-1.132269,0.101998,-0.888149,0.3147829,-0.5177404,0.3085043,-1.408488,0.0.0.0,10.221.79.104,1,0
2014-11-28 15:43:57.456,144,4.8,56.17315,10.18924,61.48468,1.49,204.6094,16,10,1417185836,0.02293396,0.9507904,-0.9880066,-5.67218,51.30084,-18.66172,302.242,299.9643,20,1.370542,-0.7298257,0.1744024,-0.4049238,-0.6127024,-1.091877,1.55582,-1.358291,-0.1565788,-0.04253202,0.9237555,-0.7588531,0.0.0.0,10.221.79.104,1,0
2014-11-28 15:43:57.489,145,4.833333,56.17315,10.18924,61.48468,1.49,204.6094,16,10,1417185836,-0.6591644,0.9824066,-0.4523315,-5.874725,50.86053,-19.75237,303.5148,301.2371,20,0.6749539,-1.844489,0.4083942,-0.3471993,-0.5903587,-1.059199,1.296539,-1.1833,0.2648866,0.2234516,-0.3417818,-0.4838881,0.0.0.0,10.221.79.104,1,0
2014-11-28 15:43:57.523,146,4.866667,56.17315,10.18924,61.48468,1.49,204.6094,16,10,1417185836,-0.7879639,1.370438,-0.7656708,-6.279816,50.31865,-20.84302,302.0034,299.7257,20,0.6776507,0.1322449,-0.3020155,-0.3031579,-0.6442004,-1.050375,0.1787317,-1.065652,0.04501485,-0.4893381,0.5028281,-0.3680826,0.0.0.0,10.221.79.104,1,0
2014-11-28 15:43:57.556,147,4.9,56.17315,10.18924,61.48468,1.49,204.6094,16,10,1417185836,-0.3341675,0.8199768,0.2771301,-6.93808,49.79369,-21.91714,298.8025,296.5247,20,0.5831742,-0.891617,-0.4580064,-0.2998996,-0.6426977,-1.044573,0.640053,0.134907,-0.2934173,-0.8387763,0.7103175,-0.03106152,0.0.0.0,10.221.79.104,1,0
2014-11-28 15:43:57.590,148,4.933333,56.17315,10.18924,61.48468,1.49,204.6094,16,10,1417185836,0.01846313,0.2706146,0.5800476,-7.731384,49.43806,-22.33026,297.8434,295.5657,20,-2.286579,1.366277,0.3031221,-0.3283926,-0.6827512,-1.045203,-1.738568,0.443799,0.2113963,0.2031659,-0.7945615,0.8958203,0.0.0.0,10.221.79.104,1,0
2014-11-28 15:43:57.624,149,4.966667,56.17315,10.18924,61.48468,1.49,204.6094,16,10,1417185836,-0.504776,1.436096,0.1791534,-7.545731,49.52272,-21.19004,296.6348,294.3571,20,-3.540362,4.952477,0.5717703,-0.4282273,-0.6915741,-1.119229,-3.356006,4.283731,0.4938705,0.2736451,0.01605287,1.656642,0.0.0.0,10.221.79.104,1,0
2014-11-28 15:43:57.656,150,5,56.17315,10.18924,61.48468,1.49,204.6094,16,10,1417185836,-0.1785431,1.724289,-0.2988586,-6.887451,50.11543,-19.28966,294.9539,292.6762,20,-3.136626,3.078627,0.345641,-0.5226907,-0.6778789,-1.184828,-3.465753,4.305639,0.4878001,-0.2686845,0.5096617,0.4723768,0.0.0.0,10.221.79.104,1,0
2014-11-28 15:43:57.689,151,5.033334,56.17315,10.18924,61.48468,1.49,204.6094,16,10,1417185836,-0.0750885,0.945343,0.1228027,-6.077271,50.72507,-16.74481,299.125,296.8473,20,-2.861021,1.53161,-0.3438074,-0.7651662,-0.8074011,-1.284923,-2.872268,1.752486,-0.1298606,0.1879924,0.1449696,0.3461037,0.0.0.0,10.221.79.104,1,0
2014-11-28 15:43:57.723,152,5.066667,56.17315,10.18924,61.48468,1.49,204.6094,16,10,1417185836,-0.1386566,0.9337921,0.03413391,-4.001175,52.33386,-9.523384,300.9901,298.7124,20,-2.579354,0.5528637,-0.3081134,-1.074062,-1.063515,-1.329742,-2.748235,0.9854992,-0.4087282,0.09181134,-0.09286727,0.1221386,0.0.0.0,10.221.79.104,1,0
2014-11-28 15:43:57.756,153,5.1,56.17315,10.18924,61.48468,1.49,204.6094,16,10,1417185836,-0.1605988,0.9021454,0.0390625,-3.562332,52.94348,-5.953995,304.213,301.9353,20,-2.227043,-0.6601055,0.082048,-1.418522,-1.394443,-1.351927,-2.404835,-0.4555823,0.01193056,0.06910472,-0.02906115,0.1086798,0.0.0.0,10.221.79.104,1,0
2014-11-28 15:43:57.791,154,5.133334,56.17315,10.18924,61.48468,1.49,204.6094,16,10,1417185836,-0.02276611,0.9185028,-0.08415222,-3.52858,53.21445,-2.5168,303.364,301.0862,20,-2.139335,-0.1893745,-0.0989636,-1.746814,-1.735198,-1.352971,-2.192623,-0.489104,-0.06831693,0.09600576,-0.05209902,-0.03034845,0.0.0.0,10.221.79.104,1,0
2014-11-28 15:43:57.823,155,5.166667,56.17315,10.18924,61.48468,1.49,204.6094,16,10,1417185836,-0.2195892,0.8879852,-0.09500122,-3.393539,52.70641,3.002541,305.0567,302.779,20,-1.93297,0.1999001,0.153054,-2.028479,-2.011947,-1.331454,-2.000298,0.09725852,0.0646384,0.1576506,-0.0880102,-0.1804758,0.0.0.0,10.221.79.104,1,0
2014-11-28 15:43:57.856,156,5.2,56.17315,10.18924,61.48468,1.49,204.6094,16,10,1417185836,-0.3158722,0.9320221,-0.06904602,-3.224747,52.13063,5.613495,303.6393,301.3615,20,-2.005891,0.8304,0.06145697,-2.255035,-2.220828,-1.302957,-1.993274,0.5857872,0.1509905,-0.08583169,-0.04787166,-0.2454341,0.0.0.0,10.221.79.104,1,0
2014-11-28 15:43:57.890,157,5.233334,56.17315,10.18924,61.48468,1.49,204.6094,16,10,1417185836,-0.146347,0.7335358,0.1873932,-3.224747,51.521,7.794792,304.5154,302.2377,20,-1.835852,1.460577,-0.2287488,-2.428438,-2.356379,-1.259734,-2.027098,1.21555,-0.1186839,-0.06893989,-0.05987344,-0.286044,0.0.0.0,10.221.79.104,1,0
2014-11-28 15:43:57.923,158,5.266667,56.17315,10.18924,61.48468,1.49,204.6094,16,10,1417185836,-0.3961945,0.8391266,0.1417847,-4.20372,49.96303,12.52094,308.8241,306.5464,20,-1.698269,-0.5502216,-0.8023242,-2.552931,-2.417905,-1.193788,-1.737411,0.5999987,-0.5321191,-0.07047432,-0.1797091,-0.05779466,0.0.0.0,10.221.79.104,1,0
2014-11-28 15:43:57.957,159,5.3,56.17315,10.18924,61.48468,1.49,204.6094,16,10,1417185836,-0.2646027,1.030441,0.180069,-4.20372,49.96303,12.52094,308.8241,306.5464,20,-1.706361,-0.2881266,-0.7644916,-2.584795,-2.452892,-1.155954,-1.735836,-0.5475097,-0.7938333,-0.1036833,0.003216237,-0.1566855,0.0.0.0,10.221.79.104,1,0
2014-11-28 15:43:57.991,160,5.333333,56.17315,10.18924,61.48468,1.49,204.6094,16,10,1417185836,-0.4424438,1.313248,-0.1856689,-5.537155,47.88008,16.90005,316.1481,313.8704,20,-1.27291,0.3481013,-0.3762873,-2.64526,-2.491426,-1.08139,-1.746068,1.029665,-0.3482599,0.1252446,0.3412801,-0.3257313,0.0.0.0,10.221.79.104,1,0
2014-11-28 15:43:58.023,161,5.366667,56.17315,10.18924,61.48468,1.49,204.6094,16,10,1417185836,-0.3257751,1.246521,-0.06164551,-6.448608,46.59305,19.04829,319.9681,317.6904,20,-0.6356001,1.096515,-0.6546785,-2.680449,-2.505848,-1.03935,-1.090489,0.2037342,-0.4359747,-0.1244545,0.4048623,-0.526591,0.0.0.0,10.221.79.104,1,0
2014-11-28 15:43:58.056,162,5.4,56.17315,10.18924,61.48468,1.49,204.6094,16,10,1417185836,0.174469,1.255783,0.2645721,-7.073135,45.42458,20.58511,322.3114,320.0337,20,-0.3836662,1.309232,-0.7961837,-2.682599,-2.492926,-1.01798,-0.6731672,1.099227,-0.6461879,0.1655599,0.3944494,-0.3957155,0.0.0.0,10.221.79.104,1,0
2014-11-28 15:43:58.090,163,5.433333,56.17315,10.18924,61.48468,1.49,204.6094,16,10,1417185836,-0.07330322,1.506012,-0.2129211,-8.980453,43.54486,22.32024,329.451,327.1732,20,-0.02369654,0.2917427,-0.2491342,-2.665637,-2.445228,-0.9884706,-0.4742394,0.1204643,-0.1910196,0.3904568,0.62801,-0.2767822,0.0.0.0,10.221.79.104,1,0
2014-11-28 15:43:58.123,164,5.466667,56.17315,10.18924,61.48468,1.49,204.6094,16,10,1417185836,0.1995239,1.447189,-0.0581665,-9.773773,43.29083,22.53506,331.3585,329.0808,20,0.7149245,0.3278295,0.2597048,-2.661657,-2.434588,-0.9815065,0.2887492,0.2358627,-0.2287487,0.2877026,0.6746764,-0.6354799,0.0.0.0,10.221.79.104,1,0
2014-11-28 15:43:58.156,165,5.5,56.17315,10.18924,61.48468,1.49,204.6094,16,10,1417185836,-0.3548737,1.140015,-0.3498993,-10.26326,43.51099,22.41939,331.2533,328.9756,20,2.474264,0.5176301,0.3349362,-2.642173,-2.408401,-1.002052,1.236985,0.3487323,0.3398034,0.3110299,0.4810763,-0.7590553,0.0.0.0,10.221.79.104,1,0
2014-11-28 15:43:58.189,166,5.533334,56.17315,10.18924,61.48468,1.49,204.6094,16,10,1417185836,-0.6450653,1.245621,0.1638489,-10.71899,45.25523,20.02327,332.7585,330.4808,20,3.94339,0.2388371,0.3428042,-2.557254,-2.320652,-1.061983,2.992799,0.4755073,0.3444996,-0.1253432,0.2245619,-0.7489951,0.0.0.0,10.221.79.104,1,0
2014-11-28 15:43:58.223,167,5.566667,56.17315,10.18924,61.48468,1.49,204.6094,16,10,1417185836,-0.7565918,1.521759,0.8375092,-10.48271,46.50841,17.54452,329.3724,327.0947,20,3.324012,0.7612177,0.5760913,-2.363696,-2.139194,-1.144207,3.903927,0.07881023,0.4632384,-0.2963564,0.3352382,-0.05887489,0.0.0.0,10.221.79.104,1,0
2014-11-28 15:43:58.256,168,5.6,56.17315,10.18924,61.48468,1.49,204.6094,16,10,1417185836,-0.7439575,1.352951,0.03909302,-10.162,47.91397,14.75179,332.9224,330.6447,20,2.516948,1.507106,0.8905845,-2.133687,-1.904841,-1.208326,2.831635,1.458536,0.6639531,-0.421607,0.5867352,0.7212526,0.0.0.0,10.221.79.104,1,0
2014-11-28 15:43:58.290,169,5.633334,56.17315,10.18924,61.48468,1.49,204.6094,16,10,1417185836,-0.5276489,1.31572,-0.09843445,-9.250549,50.14931,7.778259,334.5747,332.297,20,2.503158,1.347904,0.8079882,-1.735471,-1.459352,-1.268995,2.537867,1.033933,0.8302416,-0.4255199,0.3996438,-0.1380242,0.0.0.0,10.221.79.104,1,0
2014-11-28 15:43:58.322,170,5.666667,56.17315,10.18924,61.48468,1.49,204.6094,16,10,1417185836,0.03967285,1.185989,0.3371735,-8.490997,51.04683,4.522835,335.762,333.4843,20,2.86058,-2.033839,1.519108,-1.457571,-1.168491,-1.281009,2.217508,-0.8301187,1.375094,0.3034465,0.3122641,0.2491653,0.0.0.0,10.221.79.104,1,0
2014-11-28 15:43:58.357,171,5.7,56.17315,10.18924,61.48468,1.49,204.6094,16,10,1417185836,-0.06448364,0.8599091,0.1725159,-7.410751,51.6226,1.21785,331.7386,329.4609,20,3.422283,-0.5889996,1.140639,-1.344184,-1.08025,-1.283473,2.823015,-2.031127,1.527598,0.373595,0.3195281,0.3808963,0.0.0.0,10.221.79.104,1,0
2014-11-28 15:43:58.391,172,5.733334,56.17315,10.18924,61.48468,1.49,204.6094,16,10,1417185836,-0.09614563,0.7885284,0.2597198,-4.963303,52.31691,-5.772224,329.3043,327.0266,20,3.50237,-3.062386,0.7635562,-0.8076867,-0.6278233,-1.211924,3.275488,-2.125197,0.8606355,0.0648054,-0.1036062,0.3899871,0.0.0.0,10.221.79.104,1,0
2014-11-28 15:43:58.423,173,5.766667,56.17315,10.18924,61.48468,1.49,204.6094,16,10,1417185836,-0.1100769,0.4380341,0.2799377,-4.068726,52.29997,-9.556442,325.6747,323.397,20,3.178685,-3.605294,0.5067535,-0.6055281,-0.5435942,-1.132126,3.332437,-3.449852,0.5459673,0.1099846,-0.328596,0.7034174,0.0.0.0,10.221.79.104,1,0
2014-11-28 15:43:58.456,174,5.8,56.17315,10.18924,61.48468,1.49,204.6094,16,10,1417185836,-0.1052246,0.3464966,0.3176727,-3.748001,51.47017,-13.37373,320.9116,318.6339,20,2.763003,-3.89946,0.4505432,-0.5095658,-0.5355436,-1.081049,2.95638,-3.804089,0.4698411,0.1299737,-0.4444178,0.6844801,0.0.0.0,10.221.79.104,1,0
2014-11-28 15:43:58.490,175,5.833333,56.17315,10.18924,61.48468,1.49,204.6094,16,10,1417185836,-0.2331543,0.2476959,0.36763,-3.916779,50.58958,-16.77785,315.0794,312.8017,20,1.071102,-2.668566,0.7348316,-0.3731377,-0.5732995,-1.00937,1.569486,-3.147659,0.6180425,0.07835562,-0.5911102,0.8388592,0.0.0.0,10.221.79.104,1,0
2014-11-28 15:43:58.523,176,5.866667,56.17315,10.18924,61.48468,1.49,204.6094,16,10,1417185836,-0.1589203,0.1806946,0.1396332,-4.878891,48.70985,-21.65273,304.7335,302.4558,20,-0.6154153,-1.101587,1.109127,-0.3120433,-0.5939245,-1.008475,-0.1317145,-1.598876,1.00345,0.08327312,-0.6409112,0.7198495,0.0.0.0,10.221.79.104,1,0
2014-11-28 15:43:58.556,177,5.9,56.17315,10.18924,61.48468,1.49,204.6094,16,10,1417185836,-0.3586884,0.2161407,-0.01408386,-5.047684,47.86313,-22.37982,300.5198,298.2421,20,-1.7617,0.8772911,1.392243,-0.2831224,-0.5893541,-1.056236,-1.514954,0.2100203,1.38654,0.04807116,-0.7103069,0.503746,0.0.0.0,10.221.79.104,1,0
2014-11-28 15:43:58.589,178,5.933334,56.17315,10.18924,61.48468,1.49,204.6094,16,10,1417185836,-0.7604523,1.055954,-1.65538,-4.355637,47.88008,-21.9667,295.6432,293.3655,20,-0.5578345,1.235775,0.5988917,-0.2722946,-0.546418,-1.121549,-1.318408,1.320033,0.9293916,-0.5220882,-0.1696342,-0.715176,0.0.0.0,10.221.79.104,1,0
2014-11-28 15:43:58.623,179,5.966667,56.17315,10.18924,61.48468,1.49,204.6094,16,10,1417185836,-0.3361511,2.223694,-1.319672,-3.410416,48.32037,-21.10741,290.8368,288.5591,20,0.9754421,-1.566296,-0.002541455,-0.2369035,-0.5299352,-1.10463,1.597768,-2.170961,-0.3859714,-0.3042236,1.346539,-1.629655,0.0.0.0,10.221.79.104,1,0
2014-11-28 15:43:58.656,180,6,56.17315,10.18924,61.48468,1.49,204.6094,16,10,1417185836,-0.265625,0.6127777,-0.862381,-3.275391,48.42197,-21.10741,293.0754,290.7977,20,1.064559,-1.190896,0.09869915,-0.2158256,-0.552803,-1.082429,0.9378796,-1.563584,0.005948162,-0.02906394,0.9408441,-0.5650986,0.0.0.0,10.221.79.104,1,0
2014-11-28 15:43:58.690,181,6.033334,56.17315,10.18924,61.48468,1.49,204.6094,16,10,1417185836,-0.4888458,0.8204651,0.6649017,-3.477936,48.32037,-21.66925,293.1313,290.8535,20,-0.9330827,-1.578024,0.2293067,-0.1436547,-0.5665413,-1.046021,1.178832,-2.744633,0.5859489,-0.04605171,-0.8155558,-0.09340348,0.0.0.0,10.221.79.104,1,0
2014-11-28 15:43:58.724,182,6.066667,56.17315,10.18924,61.48468,1.49,204.6094,16,10,1417185836,-0.5287781,1.09079,-0.07597351,-4.406281,48.23569,-22.57813,292.4181,290.1404,20,-0.7098216,2.697219,0.3403485,-0.1409564,-0.6195089,-1.066635,-1.639518,-0.4670049,0.4643899,0.0607169,0.06947299,0.7402853,0.0.0.0,10.221.79.104,1,0
2014-11-28 15:43:58.756,183,6.1,56.17315,10.18924,61.48468,1.49,204.6094,16,10,1417185836,-0.3970795,1.716415,-0.02194214,-4.591949,48.04941,-22.89211,288.5976,286.3199,20,0.2853734,1.431116,-0.2281559,-0.1524976,-0.596054,-1.096017,-0.7473835,2.699931,0.348838,-0.9831305,0.6886548,-0.0803682,0.0.0.0,10.221.79.104,1,0
2014-11-28 15:43:58.789,184,6.133334,56.17315,10.18924,61.48468,1.49,204.6094,16,10,1417185836,-0.2154694,-0.08055115,0.6223145,-4.591949,47.9478,-22.59465,285.378,283.1003,20,-2.358032,1.334988,0.3684047,-0.1796367,-0.6272024,-1.087782,-0.9089081,-0.2947256,-0.1496926,0.2847392,-0.7277771,1.425095,0.0.0.0,10.221.79.104,1,0
2014-11-28 15:43:58.822,185,6.166667,56.17315,10.18924,61.48468,1.49,204.6094,16,10,1417185836,0.02218628,0.6147919,1.287079,-4.119324,48.52359,-21.33875,287.246,284.9683,20,-4.559891,5.375065,0.8667111,-0.2591986,-0.6616448,-1.149185,-3.239477,2.386926,0.589623,0.107929,-0.7047586,1.176743,0.0.0.0,10.221.79.104,1,0
2014-11-28 15:43:58.856,186,6.2,56.17315,10.18924,61.48468,1.49,204.6094,16,10,1417185836,-0.1446991,1.782837,-0.5836334,-3.039078,49.20096,-19.0583,288.6336,286.3559,20,-3.414348,3.288833,0.5921097,-0.4483111,-0.6865203,-1.27449,-4.681283,5.748929,0.9674256,0.314045,0.4142909,1.004589,0.0.0.0,10.221.79.104,1,0
2014-11-28 15:43:58.889,187,6.233334,56.17315,10.18924,61.48468,1.49,204.6094,16,10,1417185836,-0.09713745,1.064697,0.08255005,-1.13176,50.91133,-11.80382,285.3448,283.0671,20,-2.862083,0.9781373,-0.137005,-0.7211539,-0.8338661,-1.376158,-3.121224,2.040818,0.2950416,-0.04372238,0.7267223,-0.2824841,0.0.0.0,10.221.79.104,1,0
2014-11-28 15:43:58.923,188,6.266667,56.17315,10.18924,61.48468,1.49,204.6094,16,10,1417185836,-0.2273407,0.6793213,0.0401001,0.04975891,51.65645,-7.705627,292.8158,290.5381,20,-2.484753,1.175181,-0.08889099,-1.205266,-1.274236,-1.421867,-2.84053,1.02817,-0.1937479,0.03509095,-0.06826092,0.1616169,0.0.0.0,10.221.79.104,1,0
2014-11-28 15:43:58.956,189,6.3,56.17315,10.18924,61.48468,1.49,204.6094,16,10,1417185836,-0.1854858,0.7950287,0.085495,0.6911469,51.96127,-3.475227,294.6174,292.3397,20,-2.295492,0.9688178,0.05619377,-1.764922,-1.790081,-1.421824,-2.317194,1.203607,-0.03168285,-0.08247256,-0.3096028,0.00781361,0.0.0.0,10.221.79.104,1,0
2014-11-28 15:43:58.989,190,6.333333,56.17315,10.18924,61.48468,1.49,204.6094,16,10,1417185836,-0.008804321,1.000259,0.08479309,0.7417755,51.1992,3.44873,299.8225,297.5448,20,-1.999811,1.262899,-0.1076942,-2.184978,-2.17123,-1.392924,-2.231771,0.9184651,-0.01198056,-0.002022234,-0.1255798,-0.009667217,0.0.0.0,10.221.79.104,1,0
2014-11-28 15:43:59.023,191,6.366667,56.17315,10.18924,61.48468,1.49,204.6094,16,10,1417185836,0.03492737,0.8617401,0.09460449,0.2523041,50.77583,6.472809,301.6386,299.3609,20,-2.026489,1.462404,-0.1961975,-2.541028,-2.450373,-1.311166,-2.103698,1.430369,-0.2189919,0.1737721,-0.03652269,-0.105665,0.0.0.0,10.221.79.104,1,0
2014-11-28 15:43:59.056,192,6.400001,56.17315,10.18924,61.48468,1.49,204.6094,16,10,1417185836,0.02825928,0.8310242,0.09075928,-0.4903564,49.99686,9.182907,307.1949,304.9171,20,-1.702217,1.404031,-0.1742805,-2.587258,-2.479397,-1.292611,-2.064107,1.465166,-0.1877972,0.2037723,-0.09981513,-0.1219663,0.0.0.0,10.221.79.104,1,0
2014-11-28 15:43:59.091,193,6.433334,56.17315,10.18924,61.48468,1.49,204.6094,16,10,1417185836,-0.2206879,0.9176636,0.09899902,-1.806931,48.60822,14.10735,312.9797,310.702,20,-1.362521,0.1346191,-0.4203224,-2.72337,-2.551953,-1.215578,-1.370693,0.3281224,-0.3282815,0.0010124,-0.004907766,-0.2400247,0.0.0.0,10.221.79.104,1,0
2014-11-28 15:43:59.123,194,6.466667,56.17315,10.18924,61.48468,1.49,204.6094,16,10,1417185836,-0.1515808,0.9867401,0.1785278,-2.684616,47.65988,15.92509,316.3397,314.062,20,-1.686239,0.6660017,-0.4093516,-2.761018,-2.579603,-1.169087,-1.580427,0.421148,-0.4463802,0.0463001,0.01776226,-0.1084597,0.0.0.0,10.221.79.104,1,0
2014-11-28 15:43:59.156,195,6.5,56.17315,10.18924,61.48468,1.49,204.6094,16,10,1417185836,-0.2868805,1.069519,0.04679871,-3.359772,46.77928,17.57759,317.5068,315.2291,20,-1.750701,0.8227045,-0.395232,-2.791404,-2.592424,-1.133152,-1.810489,0.8195078,-0.3683334,0.01484271,0.1359801,-0.2463163,0.0.0.0,10.221.79.104,1,0
2014-11-28 15:43:59.189,196,6.533334,56.17315,10.18924,61.48468,1.49,204.6094,16,10,1417185836,-0.2229004,1.243881,-0.0133667,-4.119308,45.67856,19.34576,321.7626,319.4849,20,-1.088026,0.2642993,-0.8309803,-2.82459,-2.598914,-1.063783,-1.245142,0.1680992,-0.7811008,-0.08168057,0.2685472,-0.4725077,0.0.0.0,10.221.79.104,1,0
2014-11-28 15:43:59.223,197,6.566667,56.17315,10.18924,61.48468,1.49,204.6094,16,10,1417185836,-0.1331024,1.305389,0.01504517,-6.397964,43.90044,21.77494,324.2559,321.9782,20,-0.6999261,1.39005,-0.4458744,-2.821006,-2.57728,-1.02233,-0.9793767,1.095871,-0.5455158,0.2217232,0.4509963,-0.4047914,0.0.0.0,10.221.79.104,1,0
2014-11-28 15:43:59.256,198,6.6,56.17315,10.18924,61.48468,1.49,204.6094,16,10,1417185836,-0.1334229,1.209061,0.185318,-7.714523,43.22305,23.22915,328.6359,326.3582,20,-0.2262734,0.7785349,-0.5972357,-2.815425,-2.528342,-0.9988917,-0.3086465,1.296253,-0.5578707,0.2342866,0.3284856,-0.239273,0.0.0.0,10.221.79.104,1,0
2014-11-28 15:43:59.289,199,6.633334,56.17315,10.18924,61.48468,1.49,204.6094,16,10,1417185836,-0.1239929,1.475098,-0.05903625,-8.811646,42.56261,24.10497,334.1395,331.8618,20,0.008262724,-0.1100123,-0.4539355,-2.797081,-2.505517,-0.9833308,-0.1072839,-0.4599052,-0.4848472,0.1409265,0.620075,-0.4644906,0.0.0.0,10.221.79.104,1,0
2014-11-28 15:43:59.323,200,6.666667,56.17315,10.18924,61.48468,1.49,204.6094,16,10,1417185836,0.08906555,1.376694,-0.2006378,-10.44891,42.37636,24.55115,337.1616,334.8839,20,0.6969823,0.1872562,0.1187543,-2.779206,-2.488537,-0.980002,0.3424515,0.2675213,-0.07734949,0.4638364,0.6356727,-0.5682728,0.0.0.0,10.221.79.104,1,0
2014-11-28 15:43:59.356,201,6.7,56.17315,10.18924,61.48468,1.49,204.6094,16,10,1417185836,-0.339859,1.159012,-0.2523804,-10.61771,42.91824,24.12149,337.3045,335.0268,20,2.211165,0.2810266,0.1553526,-2.749572,-2.458213,-1.008766,1.647245,0.1427682,0.1976136,0.1819142,0.4170696,-0.7360676,0.0.0.0,10.221.79.104,1,0
2014-11-28 15:43:59.389,202,6.733334,56.17315,10.18924,61.48468,1.49,204.6094,16,10,1417185836,-0.5446167,1.272049,0.2687073,-10.82025,44.00206,22.33679,335.2614,332.9837,20,4.016047,0.3031729,0.007401723,-2.646059,-2.359239,-1.073984,3.359288,0.2582524,0.1127623,-0.1481335,0.3032818,-0.6932132,0.0.0.0,10.221.79.104,1,0
2014-11-28 15:43:59.422,203,6.766667,56.17315,10.18924,61.48468,1.49,204.6094,16,10,1417185836,-0.6776886,1.43692,0.8813782,-11.10719,45.54309,19.87457,337.5145,335.2368,20,2.844527,1.686926,0.5851908,-2.36659,-2.079859,-1.179766,3.278064,1.171835,0.4958009,-0.292187,0.4406259,0.4361041,0.0.0.0,10.221.79.104,1,0
2014-11-28 15:43:59.456,204,6.8,56.17315,10.18924,61.48468,1.49,204.6094,16,10,1417185836,-0.5284882,1.291199,0.1801758,-11.34349,49.20094,13.36372,338.0805,335.8028,20,2.700695,1.541801,0.6415393,-2.222347,-1.912549,-1.216965,2.806911,1.689688,0.5935903,-0.4308069,0.4776127,0.6413683,0.0.0.0,10.221.79.104,1,0
2014-11-28 15:43:59.489,205,6.833333,56.17315,10.18924,61.48468,1.49,204.6094,16,10,1417185836,-0.4656372,1.37825,-0.2543182,-11.29285,50.67424,9.414253,339.9229,337.6452,20,2.842675,-0.2824738,0.8028246,-1.897578,-1.563947,-1.270345,2.564899,0.09009448,1.011052,-0.2281796,0.4021121,-0.1886773,0.0.0.0,10.221.79.104,1,0
2014-11-28 15:43:59.523,206,6.866667,56.17315,10.18924,61.48468,1.49,204.6094,16,10,1417185836,-0.007293701,1.169571,0.34198,-10.68521,52.06288,5.547409,337.9401,335.6624,20,3.45352,-2.009672,1.301984,-1.582729,-1.275365,-1.285537,2.76366,-1.17818,1.075632,0.1074719,0.4004425,0.07587462,0.0.0.0,10.221.79.104,1,0
2014-11-28 15:43:59.557,207,6.900001,56.17315,10.18924,61.48468,1.49,204.6094,16,10,1417185836,-0.0486908,0.9459076,0.06028748,-9.773758,52.87573,2.110207,337.6956,335.4179,20,3.250976,-0.4510106,1.218005,-1.325654,-1.073845,-1.286271,3.415905,-2.00691,1.310383,0.3056167,0.3660107,0.399388,0.0.0.0,10.221.79.104,1,0
2014-11-28 15:43:59.589,208,6.933334,56.17315,10.18924,61.48468,1.49,204.6094,16,10,1417185836,-0.1346436,0.842926,0.2068634,-7.427612,53.16362,-4.979004,330.3246,328.0468,20,3.26374,-2.89202,0.8477619,-0.8744525,-0.6793892,-1.237035,3.049827,-1.224835,1.028628,-0.02145851,-0.08179496,0.3813533,0.0.0.0,10.221.79.104,1,0
2014-11-28 15:43:59.623,209,6.966667,56.17315,10.18924,61.48468,1.49,204.6094,16,10,1417185836,-0.1517639,0.489151,0.3208008,-6.144821,52.82494,-9.143303,328.2074,325.9297,20,3.0189,-3.366672,0.6776858,-0.6487133,-0.5503262,-1.169669,3.229945,-3.140095,0.7709297,0.08926582,-0.1735054,0.6237615,0.0.0.0,10.221.79.104,1,0
2014-11-28 15:43:59.656,210,7,56.17315,10.18924,61.48468,1.49,204.6094,16,10,1417185836,-0.2087097,0.4031982,0.3476257,-5.317749,52.13062,-12.99361,323.4332,321.1555,20,2.178728,-3.354676,0.5204,-0.4893163,-0.5111983,-1.098092,2.739622,-3.416042,0.6413373,0.07097709,-0.4011893,0.717891,0.0.0.0,10.221.79.104,1,0
2014-11-28 15:43:59.690,211,7.033334,56.17315,10.18924,61.48468,1.49,204.6094,16,10,1417185836,-0.2785645,0.1952972,0.3865967,-5.40213,50.28476,-20.04979,310.9771,308.6993,20,1.040917,-2.52597,0.5721431,-0.3845424,-0.5261878,-1.045305,1.809145,-3.222721,0.5057624,-0.01413973,-0.5922045,0.8252602,0.0.0.0,10.221.79.104,1,0
2014-11-28 15:43:59.723,212,7.066667,56.17315,10.18924,61.48468,1.49,204.6094,16,10,1417185836,-0.1825104,0.1006927,0.2338562,-6.026627,49.52272,-22.57811,305.6472,303.3694,20,-0.454877,-1.079676,0.78247,-0.319298,-0.5533105,-1.024656,0.5304857,-2.030723,0.6333336,0.01159181,-0.6766487,0.8022454,0.0.0.0,10.221.79.104,1,0
2014-11-28 15:43:59.756,213,7.1,56.17315,10.18924,61.48468,1.49,204.6094,16,10,1417185836,-0.3134613,0.1235504,0.1263733,-6.313583,49.03162,-23.58614,301.1465,298.8688,20,-2.072682,0.5580468,1.011214,-0.2907843,-0.5671175,-1.047568,-1.029371,-0.5827753,0.8906128,0.08591876,-0.7655178,0.6553121,0.0.0.0,10.221.79.104,1,0
2014-11-28 15:43:59.789,214,7.133334,56.17315,10.18924,61.48468,1.49,204.6094,16,10,1417185836,-0.7862396,0.9675446,-1.664459,-5.992874,49.08241,-22.97472,292.0979,289.8202,20,0.2267751,0.295796,-0.1193155,-0.3234603,-0.5671765,-1.152346,-1.126688,0.9685275,0.3516227,-0.5679299,0.05382464,-1.32174,0.0.0.0,10.221.79.104,1,0
2014-11-28 15:43:59.823,215,7.166667,56.17315,10.18924,61.48468,1.49,204.6094,16,10,1417185836,-0.1783905,2.739792,-1.336456,-5.73967,49.33643,-22.26414,285.9669,283.6892,20,1.029958,-2.116715,-0.2781773,-0.3064977,-0.5687874,-1.12116,1.625818,-1.678737,-0.5846519,-0.2247923,1.82199,-1.741918,0.0.0.0,10.221.79.104,1,0
2014-11-28 15:43:59.856,216,7.2,56.17315,10.18924,61.48468,1.49,204.6094,16,10,1417185836,-0.1651764,1.131073,-0.8234253,-5.368347,49.3703,-21.66925,291.1457,288.868,20,1.274972,-1.529299,0.2654362,-0.2991648,-0.5838627,-1.108872,0.9923393,-2.113953,-0.2697743,0.06728651,1.844595,-0.9646146,0.0.0.0,10.221.79.104,1,0
2014-11-28 15:43:59.889,217,7.233334,56.17315,10.18924,61.48468,1.49,204.6094,16,10,1417185836,-0.6558228,0.2712402,-0.2230377,-5.486496,49.25175,-21.95018,291.4548,289.1771,20,0.187556,-2.466822,0.03661207,-0.1981698,-0.5884567,-1.060878,1.059958,-2.300337,0.2794045,-0.3848857,-0.601544,0.1829683,0.0.0.0,10.221.79.104,1,0
2014-11-28 15:43:59.923,218,7.266667,56.17315,10.18924,61.48468,1.49,204.6094,16,10,1417185836,-0.6193085,1.052231,-0.1418457,-6.482346,48.01555,-23.52006,289.3374,287.0597,20,-0.4651,0.8272119,0.4092269,-0.1974985,-0.6479247,-1.069338,-0.5993484,-0.7407148,0.3722577,-0.111078,-0.0107783,0.05702087,0.0.0.0,10.221.79.104,1,0
2014-11-28 15:43:59.956,219,7.3,56.17315,10.18924,61.48468,1.49,204.6094,16,10,1417185836,-1.173218,1.953323,-0.7067719,-6.60051,47.72766,-23.76793,284.427,282.1493,20,-0.05060885,-0.05992805,-0.1040761,-0.1960695,-0.6281517,-1.080962,-0.2232895,1.280539,0.2222269,-0.6613427,0.6395162,0.003978692,0.0.0.0,10.221.79.104,1,0
2014-11-28 15:43:59.990,220,7.333333,56.17315,10.18924,61.48468,1.49,204.6094,16,10,1417185836,-0.161377,0.2810364,0.6470947,-6.819931,47.57524,-23.78446,282.857,280.5793,20,-2.168185,0.5696803,0.3479604,-0.2325506,-0.6739052,-1.102886,-1.614523,0.1521626,0.2608115,0.04477793,-0.6424668,1.078697,0.0.0.0,10.221.79.104,1,0
2014-11-28 15:44:00.024,221,7.366667,56.17315,10.18924,61.48468,1.49,204.6094,16,10,1417185836,0.05278015,0.80867,1.09642,-6.026627,48.54053,-20.92564,283.1594,280.8817,20,-3.730817,3.510966,0.7295099,-0.3366742,-0.7298942,-1.175859,-3.310128,2.397577,0.579301,0.2120686,-0.4190381,1.180318,0.0.0.0,10.221.79.104,1,0
2014-11-28 15:44:00.056,222,7.400001,56.17315,10.18924,61.48468,1.49,204.6094,16,10,1417185836,-0.1056976,1.626648,-0.2941589,-4.946396,49.59047,-18.11639,280.2659,277.9882,20,-3.527289,3.264073,0.6578575,-0.5426229,-0.7987393,-1.282469,-3.994504,4.266144,0.7404342,0.1365448,0.4662211,0.6889804,0.0.0.0,10.221.79.104,1,0
2014-11-28 15:44:00.089,223,7.433334,56.17315,10.18924,61.48468,1.49,204.6094,16,10,1417185836,-0.12883,0.9124451,0.1121216,-3.984299,50.38638,-14.96011,280.3732,278.0955,20,-2.781544,1.419164,0.02760633,-0.8318623,-0.993044,-1.361834,-2.896253,1.78509,0.2594859,0.005959016,0.486414,-0.05662729,0.0.0.0,10.221.79.104,1,0
2014-11-28 15:44:00.123,224,7.466667,56.17315,10.18924,61.48468,1.49,204.6094,16,10,1417185836,-0.1894836,0.8096771,0.04969788,-2.043228,51.72421,-7.07769,288.4089,286.1312,20,-2.290494,0.7810607,0.03543682,-1.449779,-1.54989,-1.397782,-2.772365,0.899956,-0.04859135,0.04827414,-0.1256343,0.06312328,0.0.0.0,10.221.79.104,1,0
2014-11-28 15:44:00.155,225,7.5,56.17315,10.18924,61.48468,1.49,204.6094,16,10,1417185836,-0.187561,0.8825684,0.09336853,-1.317444,51.87662,-3.326523,290.0721,287.7944,20,-2.274179,0.5647718,0.08755302,-1.750387,-1.827416,-1.391452,-2.328089,0.7838787,0.04376278,-0.01694102,-0.1742838,0.004421792,0.0.0.0,10.221.79.104,1,0
2014-11-28 15:44:00.189,226,7.533334,56.17315,10.18924,61.48468,1.49,204.6094,16,10,1417185836,-0.02819824,0.9680634,-0.006698608,-1.13176,51.89355,-0.1041489,290.5777,288.3,20,-1.825927,0.595903,-0.2447552,-2.18657,-2.23067,-1.34661,-2.120223,0.5889353,-0.1824558,0.05892807,0.02301043,-0.1166435,0.0.0.0,10.221.79.104,1,0
2014-11-28 15:44:00.225,227,7.566667,56.17315,10.18924,61.48468,1.49,204.6094,16,10,1417185836,-0.1815338,0.9537048,0.0279541,-1.233032,51.65646,2.969498,293.0776,290.7999,20,-1.90484,0.8811236,-0.2937315,-2.350741,-2.370262,-1.300228,-1.834283,0.7047181,-0.2768984,0.0787281,-0.04867156,-0.1983946,0.0.0.0,10.221.79.104,1,0
2014-11-28 15:44:00.256,228,7.6,56.17315,10.18924,61.48468,1.49,204.6094,16,10,1417185836,-0.1222992,0.9129181,-0.04800415,-1.671875,51.11455,5.91095,294.8957,292.618,20,-1.882724,0.9794995,-0.2586854,-2.430449,-2.429933,-1.266617,-1.942434,0.8839416,-0.2854057,0.01407375,-0.0003882465,-0.1988588,0.0.0.0,10.221.79.104,1,0
2014-11-28 15:44:00.289,229,7.633334,56.17315,10.18924,61.48468,1.49,204.6094,16,10,1417185836,-0.09559631,0.8731537,0.1338043,-2.735245,49.84445,10.75277,301.5288,299.2511,20,-1.445661,0.6151204,-0.2477922,-2.549324,-2.501526,-1.201547,-1.568211,0.9235822,-0.2141542,0.154491,-0.07902175,-0.2151337,0.0.0.0,10.221.79.104,1,0
2014-11-28 15:44:00.323,230,7.666667,56.17315,10.18924,61.48468,1.49,204.6094,16,10,1417185836,-0.2372131,0.9352722,0.2368164,-3.477921,48.96387,12.76882,303.9459,301.6682,20,-1.52968,1.000944,-0.4062058,-2.606043,-2.532205,-1.158312,-1.464962,0.5900769,-0.3151099,0.06221743,0.003260259,-0.1770086,0.0.0.0,10.221.79.104,1,0
2014-11-28 15:44:00.356,231,7.7,56.17315,10.18924,61.48468,1.49,204.6094,16,10,1417185836,-0.4341125,1.024536,0.1332397,-4.271225,48.1002,14.86749,307.8303,305.5526,20,-1.620111,0.4023403,-0.4989353,-2.648823,-2.542748,-1.110407,-1.645123,0.9777522,-0.3994454,-0.06181084,0.08410084,-0.1554815,0.0.0.0,10.221.79.104,1,0
2014-11-28 15:44:00.389,232,7.733334,56.17315,10.18924,61.48468,1.49,204.6094,16,10,1417185836,-0.3281708,1.232727,-0.0304718,-5.739685,45.98338,18.05682,312.3599,310.0822,20,-1.133771,0.8041452,-0.6539965,-2.68418,-2.557563,-1.058345,-1.530275,0.2835151,-0.5747826,-0.2459109,0.2109593,-0.4474815,0.0.0.0,10.221.79.104,1,0
2014-11-28 15:44:00.423,233,7.766667,56.17315,10.18924,61.48468,1.49,204.6094,16,10,1417185836,-0.04200745,1.279892,0.05073547,-6.634262,44.95038,19.46144,315.8289,313.5511,20,-0.4882333,1.598727,-0.6708828,-2.69367,-2.542028,-1.014862,-1.049957,1.255553,-0.6153548,0.03706584,0.4503205,-0.4074305,0.0.0.0,10.221.79.104,1,0
2014-11-28 15:44:00.456,234,7.8,56.17315,10.18924,61.48468,1.49,204.6094,16,10,1417185836,0.1021271,1.282272,0.1749268,-8.018311,44.20528,20.55209,318.746,316.4683,20,-0.1229555,0.2874224,-0.6410213,-2.68339,-2.485152,-0.9865171,-0.242718,1.360051,-0.7606506,0.4063125,0.4240535,-0.2917264,0.0.0.0,10.221.79.104,1,0
2014-11-28 15:44:00.489,235,7.833334,56.17315,10.18924,61.48468,1.49,204.6094,16,10,1417185836,0.005279541,1.652161,-0.08189392,-10.33073,43.20613,21.62622,327.8271,325.5493,20,0.1803293,-0.0462647,-0.1480278,-2.660395,-2.45051,-0.9697064,-0.1184978,-0.05867028,-0.4519083,0.3674032,0.7849605,-0.4122527,0.0.0.0,10.221.79.104,1,0
2014-11-28 15:44:00.523,236,7.866667,56.17315,10.18924,61.48468,1.49,204.6094,16,10,1417185836,0.04447937,1.349152,-0.4134521,-11.02278,43.22308,21.8741,328.9033,326.6255,20,1.828346,0.1432669,0.2131597,-2.628922,-2.426732,-0.9854878,1.307301,0.07598577,0.1283353,0.4066215,0.5156099,-0.8306587,0.0.0.0,10.221.79.104,1,0
2014-11-28 15:44:00.556,237,7.900001,56.17315,10.18924,61.48468,1.49,204.6094,16,10,1417185836,-0.358963,1.187347,-0.3520355,-11.66417,43.86659,21.31225,326.9849,324.7072,20,2.754102,0.4326449,0.4060162,-2.610164,-2.409738,-1.000196,1.790755,0.1460847,0.221485,0.303849,0.4942997,-0.771121,0.0.0.0,10.221.79.104,1,0
2014-11-28 15:44:00.590,238,7.933334,56.17315,10.18924,61.48468,1.49,204.6094,16,10,1417185836,-0.8135223,1.365204,0.7513275,-11.93423,46.00034,18.0403,331.6045,329.3268,20,4.232008,-0.2253133,0.3736005,-2.389638,-2.206275,-1.126526,4.105956,-0.2120402,0.4267179,-0.4862413,0.317458,-0.5000161,0.0.0.0,10.221.79.104,1,0
2014-11-28 15:44:00.623,239,7.966667,56.17315,10.18924,61.48468,1.49,204.6094,16,10,1417185836,-0.6530304,1.461136,1.14006,-11.98486,47.64297,15.08234,332.3811,330.1034,20,3.022951,2.343342,0.6392223,-2.132199,-1.959904,-1.201008,3.443359,1.323514,0.5583763,-0.3469951,0.4873807,0.9919504,0.0.0.0,10.221.79.104,1,0
2014-11-28 15:44:00.656,240,8,56.17315,10.18924,61.48468,1.49,204.6094,16,10,1417185836,-0.6362152,1.398041,-0.3688507,-11.95111,48.99773,11.24854,335.7713,333.4936,20,2.4303,1.73684,0.9791783,-2.050771,-1.861236,-1.218303,2.98536,2.34616,0.6475475,-0.3222511,0.5226209,1.041193,0.0.0.0,10.221.79.104,1,0
2014-11-28 15:44:00.690,241,8.033334,56.17315,10.18924,61.48468,1.49,204.6094,16,10,1417185836,0.01913452,1.283035,0.3439026,-11.63042,50.64038,7.299072,338.7926,336.5149,20,3.32694,-0.7794362,0.8898303,-1.606935,-1.377559,-1.272597,3.204652,-0.09697171,0.7580262,-0.317412,0.3790024,-0.1563633,0.0.0.0,10.221.79.104,1,0
2014-11-28 15:44:00.723,242,8.066668,56.17315,10.18924,61.48468,1.49,204.6094,16,10,1417185836,0.09048462,1.154877,0.3225403,-9.706223,52.57092,-0.7651291,332.2431,329.9654,20,3.570127,-0.7924763,1.282538,-1.226584,-1.05604,-1.267932,3.503002,-1.68585,1.319097,0.3181536,0.3288392,0.5495785,0.0.0.0,10.221.79.104,1,0
2014-11-28 15:44:00.756,243,8.1,56.17315,10.18924,61.48468,1.49,204.6094,16,10,1417185836,-0.1069489,0.9184723,0.03010559,-8.592224,52.74025,-4.69809,327.9572,325.6794,20,3.253813,-0.9391723,1.037856,-0.8741766,-0.741244,-1.236908,3.302902,-0.3768393,1.159649,0.1487222,0.009005815,0.3382163,0.0.0.0,10.221.79.104,1,0
2014-11-28 15:44:00.789,244,8.133334,56.17315,10.18924,61.48468,1.49,204.6094,16,10,1417185836,-0.06974792,0.4950562,0.2878571,-7.461319,52.75719,-8.812805,328.0218,325.7441,20,3.502682,-2.908314,0.6808302,-0.6288763,-0.5649073,-1.168762,3.521567,-2.662411,0.7360139,0.1359255,-0.1464784,0.5171298,0.0.0.0,10.221.79.104,1,0
2014-11-28 15:44:00.823,245,8.166667,56.17315,10.18924,61.48468,1.49,204.6094,16,10,1417185836,-0.1276245,0.279007,0.4082794,-6.262939,51.11455,-16.66217,318.7197,316.442,20,2.81378,-3.753147,0.5947768,-0.459131,-0.5105036,-1.088987,3.051986,-3.504686,0.6560231,0.163337,-0.4854774,0.6949508,0.0.0.0,10.221.79.104,1,0
2014-11-28 15:44:00.856,246,8.200001,56.17315,10.18924,61.48468,1.49,204.6094,16,10,1417185836,-0.1873169,0.1523132,0.464386,-6.549866,50.18315,-20.01675,313.205,310.9273,20,1.59577,-3.396332,0.5561213,-0.3461548,-0.5319981,-1.028893,2.016182,-3.725036,0.545924,0.1340018,-0.5777217,0.8527653,0.0.0.0,10.221.79.104,1,0
2014-11-28 15:44:00.889,247,8.233334,56.17315,10.18924,61.48468,1.49,204.6094,16,10,1417185836,-0.186615,0.0224762,0.3180542,-6.954971,49.09932,-22.4955,307.0107,304.733,20,0.02810088,-1.899601,0.8293097,-0.276235,-0.5690259,-1.006974,0.5640868,-2.394917,0.7289838,0.04867914,-0.7797431,0.8728176,0.0.0.0,10.221.79.104,1,0
2014-11-28 15:44:00.923,248,8.266667,56.17315,10.18924,61.48468,1.49,204.6094,16,10,1417185836,-0.4661102,0.3020782,-0.2810516,-7.545715,48.43889,-23.96622,300.929,298.6513,20,-2.411857,0.4669701,1.153706,-0.2474115,-0.6016822,-1.057472,-1.885659,-0.5031087,1.15802,0.0499669,-0.8164141,0.593724,0.0.0.0,10.221.79.104,1,0
2014-11-28 15:44:00.956,249,8.3,56.17315,10.18924,61.48468,1.49,204.6094,16,10,1417185836,-0.7797546,0.8969727,-1.121262,-8.035217,48.42197,-24.24714,294.3345,292.0568,20,-1.965696,0.6721203,0.9005231,-0.2647634,-0.6131763,-1.113414,-2.449445,0.4698474,1.161984,-0.2119832,-0.5951335,0.0801001,0.0.0.0,10.221.79.104,1,0
2014-11-28 15:44:00.990,250,8.333334,56.17315,10.18924,61.48468,1.49,204.6094,16,10,1417185836,-0.5590668,2.74469,-1.740509,-7.933929,48.92999,-22.62769,282.8909,280.6132,20,1.480994,-2.472129,-0.1384687,-0.2718402,-0.5982045,-1.140937,1.691643,-0.8990043,-0.5452921,-0.8429593,1.647814,-2.300401,0.0.0.0,10.221.79.104,1,0
2014-11-28 15:44:01.023,251,8.366667,56.17315,10.18924,61.48468,1.49,204.6094,16,10,1417185836,-0.1784821,0.8045959,-0.7598419,-7.917053,49.45496,-22.44592,284.6295,282.3518,20,1.664551,-1.81661,0.3279696,-0.2209918,-0.6214994,-1.094532,1.399685,-2.21062,0.1866654,0.1514329,0.5953865,-0.5236295,0.0.0.0,10.221.79.104,1,0
2014-11-28 15:44:01.056,252,8.400001,56.17315,10.18924,61.48468,1.49,204.6094,16,10,1417185836,-0.587738,0.3152008,-0.3211823,-8.153366,49.42108,-22.54507,287.7042,285.4265,20,1.296708,-2.550711,0.5960458,-0.1691832,-0.6148161,-1.070995,1.626963,-1.813733,0.3362466,0.03083066,-0.5858992,-0.2598309,0.0.0.0,10.221.79.104,1,0
2014-11-28 15:44:01.089,253,8.433333,56.17315,10.18924,61.48468,1.49,204.6094,16,10,1417185836,-1.018387,1.27478,-0.2693634,-9.402405,48.10019,-24.4289,285.4575,283.1798,20,-0.9668542,1.190226,0.3187551,-0.1105125,-0.6618162,-1.064992,-0.9410912,-1.698753,0.2615628,0.1843074,0.1035778,0.624392,0.0.0.0,10.221.79.104,1,0
2014-11-28 15:44:01.123,254,8.466667,56.17315,10.18924,61.48468,1.49,204.6094,16,10,1417185836,-0.2611389,0.8061066,0.7445221,-9.824371,48.11713,-25.10644,280.0107,277.7329,20,-0.2337036,-1.376358,-0.3430551,-0.1360075,-0.6679189,-1.094816,-0.1941015,1.233909,-0.01420972,-1.147267,0.9901844,-0.1891886,0.0.0.0,10.221.79.104,1,0
2014-11-28 15:44:01.156,255,8.5,56.17315,10.18924,61.48468,1.49,204.6094,16,10,1417185836,-0.3290253,0.2579346,0.6240845,-10.31386,47.86311,-25.18906,274.8467,272.569,20,-1.923853,0.7352221,-0.09885814,-0.1626671,-0.717062,-1.095146,-0.8827002,-0.5911049,-0.1660576,0.03979184,-0.08288834,1.089672,0.0.0.0,10.221.79.104,1,0
2014-11-28 15:44:01.189,256,8.533334,56.17315,10.18924,61.48468,1.49,204.6094,16,10,1417185836,0.1079407,0.9269257,1.07666,-10.16194,49.06544,-22.826,275.8613,273.5836,20,-3.828312,3.766158,0.6272035,-0.256675,-0.7823355,-1.137048,-2.72414,1.489809,0.1856828,0.2385892,-0.6948268,0.9957196,0.0.0.0,10.221.79.104,1,0
2014-11-28 15:44:01.223,257,8.566668,56.17315,10.18924,61.48468,1.49,204.6094,16,10,1417185836,-0.08621216,1.649826,-0.3711548,-9.520538,49.81056,-20.44641,271.8299,269.5522,20,-3.644785,2.912066,0.5715373,-0.4547237,-0.8595042,-1.23053,-4.152377,4.33851,0.7543108,0.2986961,0.262336,0.9284399,0.0.0.0,10.221.79.104,1,0
2014-11-28 15:44:01.256,258,8.6,56.17315,10.18924,61.48468,1.49,204.6094,16,10,1417185836,-0.1024323,1.272141,-0.03889465,-8.440292,50.62343,-17.40581,275.7466,273.4689,20,-2.540199,0.4698455,-0.3718282,-0.7522892,-1.044601,-1.316727,-3.167459,1.916084,0.2478683,0.1311314,0.6819283,-0.2449178,0.0.0.0,10.221.79.104,1,0
2014-11-28 15:44:01.289,259,8.633334,56.17315,10.18924,61.48468,1.49,204.6094,16,10,1417185836,-0.1514435,0.8196869,-0.0227356,-7.393799,51.70723,-13.73726,274.4471,272.1694,20,-1.925902,-0.5887,0.05069993,-1.20713,-1.463719,-1.340725,-2.338162,0.06888118,-0.34195,0.1167707,0.1243265,0.1044654,0.0.0.0,10.221.79.104,1,0
2014-11-28 15:44:01.323,260,8.666667,56.17315,10.18924,61.48468,1.49,204.6094,16,10,1417185836,-0.3137207,0.7543488,0.02964783,-6.026611,53.04506,-6.945496,280.2535,277.9758,20,-1.936835,-0.7474244,0.1104266,-1.57642,-1.847598,-1.334884,-1.911993,-0.9271731,0.1702919,-0.1001942,-0.293499,-0.002976145,0.0.0.0,10.221.79.104,1,0
2014-11-28 15:44:01.357,261,8.700001,56.17315,10.18924,61.48468,1.49,204.6094,16,10,1417185836,-0.152832,0.8769684,0.01911926,-5.824066,53.41762,-3.772705,279.5719,277.2942,20,-2.039239,-0.08003891,0.02038011,-1.662477,-1.939682,-1.329651,-1.97445,-0.7445521,0.1186886,-0.09097137,-0.2167165,-0.05646305,0.0.0.0,10.221.79.104,1,0
2014-11-28 15:44:01.390,262,8.733334,56.17315,10.18924,61.48468,1.49,204.6094,16,10,1417185836,-0.2557526,0.8807373,0.01992798,-6.094131,53.55309,-1.194809,281.8328,279.5551,20,-1.928553,0.5219255,-0.1134254,-2.008469,-2.272787,-1.274714,-1.917534,0.4191574,-0.05461565,0.009774856,-0.04662054,-0.212489,0.0.0.0,10.221.79.104,1,0
2014-11-28 15:44:01.422,263,8.766667,56.17315,10.18924,61.48468,1.49,204.6094,16,10,1417185836,-0.2253571,0.8909454,-0.07252502,-6.077255,53.40068,3.647003,280.834,278.5563,20,-1.686577,0.3713975,-0.2694525,-2.144279,-2.386955,-1.228803,-1.894567,0.3451726,-0.1838509,-0.04326145,-0.05070017,-0.3058439,0.0.0.0,10.221.79.104,1,0
2014-11-28 15:44:01.456,264,8.8,56.17315,10.18924,61.48468,1.49,204.6094,16,10,1417185836,-0.1613007,0.967041,-0.07891846,-6.397949,53.04506,5.844826,282.2391,279.9614,20,-1.269833,0.4512979,-0.2899264,-2.200477,-2.431667,-1.198621,-1.516814,0.3941473,-0.2793272,0.06996123,-0.02415922,-0.3524049,0.0.0.0,10.221.79.104,1,0
2014-11-28 15:44:01.489,265,8.833334,56.17315,10.18924,61.48468,1.49,204.6094,16,10,1417185836,-0.1955414,0.9412384,0.01712036,-6.921188,52.58783,7.679092,283.3589,281.0812,20,-1.214169,1.05536,-0.2406094,-2.262114,-2.462067,-1.153536,-1.110036,0.9297889,-0.2059611,0.1277508,0.07934289,-0.3727331,0.0.0.0,10.221.79.104,1,0
2014-11-28 15:44:01.523,266,8.866667,56.17315,10.18924,61.48468,1.49,204.6094,16,10,1417185836,-0.3498688,1.02597,0.2460022,-8.119583,51.11452,10.93452,289.8517,287.574,20,-1.253334,0.8509311,-0.4932651,-2.306542,-2.46929,-1.115017,-1.36967,0.9834713,-0.4001578,-0.06162592,0.06372121,-0.1334562,0.0.0.0,10.221.79.104,1,0
2014-11-28 15:44:01.556,267,8.900001,56.17315,10.18924,61.48468,1.49,204.6094,16,10,1417185836,-0.4394073,1.221481,-0.03489685,-9.115448,50.72502,12.33914,292.9189,290.6412,20,-1.146762,0.736359,-0.4847345,-2.333513,-2.468919,-1.07317,-1.223522,0.667929,-0.5247097,-0.03464016,0.1975912,-0.161473,0.0.0.0,10.221.79.104,1,0
2014-11-28 15:44:01.590,268,8.933333,56.17315,10.18924,61.48468,1.49,204.6094,16,10,1417185836,-0.1903534,1.309647,-0.07595825,-10.01003,50.1662,13.41327,295.2491,292.9714,20,-0.478924,0.8673918,-0.5238312,-2.34956,-2.457969,-1.038487,-0.7225046,0.8687681,-0.5181314,-0.1355601,0.4316364,-0.4813532,0.0.0.0,10.221.79.104,1,0
2014-11-28 15:44:01.623,269,8.966667,56.17315,10.18924,61.48468,1.49,204.6094,16,10,1417185836,0.06376648,1.335526,-0.005340576,-11.03963,49.97992,14.25604,297.7372,295.4595,20,0.1532212,0.3438602,-0.7974125,-2.337681,-2.422236,-1.017253,-0.1314802,0.6695237,-0.6841527,0.1560337,0.4589794,-0.471409,0.0.0.0,10.221.79.104,1,0
2014-11-28 15:44:01.656,270,9,56.17315,10.18924,61.48468,1.49,204.6094,16,10,1417185836,0.156189,1.781693,-0.1734161,-12.22116,49.60736,14.91705,301.485,299.2072,20,0.7215316,-0.418303,-0.7734236,-2.290464,-2.385355,-1.005915,0.477993,-0.6543286,-0.8492655,0.4432864,0.7709944,-0.5225796,0.0.0.0,10.221.79.104,1,0
2014-11-28 15:44:01.690,271,9.033334,56.17315,10.18924,61.48468,1.49,204.6094,16,10,1417185836,-0.4484558,1.251801,-0.8593597,-13.92595,49.45494,14.83442,302.8971,300.6194,20,3.588421,-0.6307894,-0.846894,-2.198985,-2.314523,-1.022089,1.760858,-0.2115803,-0.368381,0.2896528,0.5403703,-0.7481658,0.0.0.0,10.221.79.104,1,0
2014-11-28 15:44:01.724,272,9.066668,56.17315,10.18924,61.48468,1.49,204.6094,16,10,1417185836,0.01889038,1.361145,0.1464233,-15.03996,50.1662,13.24802,300.4957,298.218,20,3.951542,0.7881319,-0.01860032,-2.011036,-2.16629,-1.067256,3.770897,0.1576659,-0.8507583,0.01611093,0.2413995,-0.7544697,0.0.0.0,10.221.79.104,1,0
2014-11-28 15:44:01.756,273,9.1,56.17315,10.18924,61.48468,1.49,204.6094,16,10,1417185836,0.08584595,1.769058,1.0755,-15.54633,50.77583,10.76927,302.4857,300.208,20,3.918105,-0.1293822,0.379555,-1.851605,-2.007468,-1.100673,3.91393,0.7910039,-0.01033906,0.429379,0.4696324,-0.04516028,0.0.0.0,10.221.79.104,1,0
2014-11-28 15:44:01.789,274,9.133334,56.17315,10.18924,61.48468,1.49,204.6094,16,10,1417185836,-0.00112915,1.33429,0.04203796,-15.63072,52.96037,3.349556,305.2512,302.9735,20,2.340106,0.47588,1.646831,-1.540155,-1.741071,-1.172189,2.766394,-0.01032232,0.9392975,0.1000056,0.6820505,0.7756906,0.0.0.0,10.221.79.104,1,0
2014-11-28 15:44:01.825,275,9.166667,56.17315,10.18924,61.48468,1.49,204.6094,16,10,1417185836,-0.3478699,1.455963,0.1362305,-14.85429,53.73936,-0.8808441,302.4948,300.2171,20,2.322421,0.4741929,1.777217,-1.341979,-1.542487,-1.226303,2.29781,0.6201102,1.930133,0.3118584,0.3937906,-0.05703008,0.0.0.0,10.221.79.104,1,0
2014-11-28 15:44:01.856,276,9.200001,56.17315,10.18924,61.48468,1.49,204.6094,16,10,1417185836,-0.1038361,1.308487,0.4022369,-13.14952,54.2982,-4.433716,300.9127,298.635,20,2.441236,-2.945552,2.050554,-1.083721,-1.283385,-1.272776,2.304256,-0.1707157,1.786418,0.05108491,0.4352089,0.3459456,0.0.0.0,10.221.79.104,1,0
2014-11-28 15:44:01.890,277,9.233334,56.17315,10.18924,61.48468,1.49,204.6094,16,10,1417185836,0.005493164,1.023651,0.3708038,-9.047958,54.0103,-11.39075,289.4319,287.1542,20,3.776647,-3.744439,1.720409,-0.7332202,-1.024996,-1.298776,2.96272,-4.117933,2.035418,0.1492286,0.1872216,0.6212523,0.0.0.0,10.221.79.104,1,0
2014-11-28 15:44:01.923,278,9.266667,56.17315,10.18924,61.48468,1.49,204.6094,16,10,1417185836,-0.07878113,0.9709778,0.3170624,-7.123749,53.19743,-14.82794,279.5652,277.2874,20,3.354947,-3.485838,1.613214,-0.2907734,-0.7219763,-1.268834,3.620992,-3.410769,1.670403,0.2021082,-0.005703819,0.5454147,0.0.0.0,10.221.79.104,1,0
2014-11-28 15:44:01.955,279,9.3,56.17315,10.18924,61.48468,1.49,204.6094,16,10,1417185836,-0.08155823,0.920578,0.3487091,-5.689056,52.02898,-18.47997,268.5205,266.2428,20,2.979807,-4.572926,1.760887,0.03296636,-0.52685,-1.212071,3.182866,-3.914566,1.647223,0.09774698,0.03463269,0.6205351,0.0.0.0,10.221.79.104,1,0
2014-11-28 15:44:01.989,280,9.333334,56.17315,10.18924,61.48468,1.49,204.6094,16,10,1417185836,-0.1606598,0.623703,0.374649,-5.098282,48.4558,-25.50307,255.3676,253.0899,20,2.086927,-4.441522,1.491047,0.2782224,-0.4419733,-1.154153,2.743964,-4.707854,1.705598,0.06038022,-0.148553,0.7459938,0.0.0.0,10.221.79.104,1,0
2014-11-28 15:44:02.023,281,9.366667,56.17315,10.18924,61.48468,1.49,204.6094,16,10,1417185836,-0.4563293,0.3912048,0.3667145,-5.638397,46.76233,-28.31232,248.8418,246.5641,20,0.9299639,-3.341507,0.9809088,0.5282864,-0.4438638,-1.096484,1.157315,-3.743217,1.118737,-0.1855959,-0.4608197,0.7855014,0.0.0.0,10.221.79.104,1,0
2014-11-28 15:44:02.056,282,9.400001,56.17315,10.18924,61.48468,1.49,204.6094,16,10,1417185836,-0.5613708,0.3186798,0.3303986,-6.617371,45.27209,-30.62582,242.3681,240.0904,20,0.3349133,-2.330551,0.7674349,0.5592263,-0.45296,-1.092029,0.8923704,-3.338575,0.989117,-0.2547202,-0.4963588,0.780942,0.0.0.0,10.221.79.104,1,0
2014-11-28 15:44:02.089,283,9.433333,56.17315,10.18924,61.48468,1.49,204.6094,16,10,1417185836,-0.6702118,0.2325287,0.1702576,-7.765152,44.12054,-31.78255,237.8341,235.5564,20,-1.035437,-0.3580881,0.6065261,0.6387858,-0.4823634,-1.108581,-0.7611843,-0.642777,0.6574531,-0.4633553,-0.662538,0.5653095,0.0.0.0,10.221.79.104,1,0
2014-11-28 15:44:02.123,284,9.466667,56.17315,10.18924,61.48468,1.49,204.6094,16,10,1417185836,-0.4958649,0.6641388,-0.663208,-9.031067,44.17136,-32.26179,230.8416,228.5638,20,-0.9682841,-0.8649958,0.6264127,0.640304,-0.493997,-1.149559,-1.175834,-0.5004274,0.6146545,-0.3666111,-0.3592847,-0.07242895,0.0.0.0,10.221.79.104,1,0
2014-11-28 15:44:02.156,285,9.500001,56.17315,10.18924,61.48468,1.49,204.6094,16,10,1417185836,-0.3709717,1.295441,-2.04953,-9.46991,44.44232,-31.9974,227.2475,224.9697,20,0.2100004,-1.837795,0.5279688,0.6416403,-0.5008467,-1.162612,-1.005877,-0.8620641,0.6346207,-0.305265,-0.2537042,-0.3150184,0.0.0.0,10.221.79.104,1,0
2014-11-28 15:44:02.190,286,9.533334,56.17315,10.18924,61.48468,1.49,204.6094,16,10,1417185836,0.5387115,1.382278,-1.167847,-9.46991,44.44232,-31.73298,224.9637,222.686,20,1.490628,-1.422912,0.4893404,0.7553124,-0.4925851,-1.127975,2.023055,-1.591,0.340282,0.6365038,1.78873,-0.900436,0.0.0.0,10.221.79.104,1,0
2014-11-28 15:44:02.222,287,9.566668,56.17315,10.18924,61.48468,1.49,204.6094,16,10,1417185836,0.4203949,0.2544556,-0.5669403,-10.70207,43.47705,-32.80709,222.1901,219.9124,20,1.763227,-4.111178,0.9775977,0.8539148,-0.4733786,-1.086194,2.168532,-3.355996,0.8336954,0.7111616,-0.1354247,-0.5675955,0.0.0.0,10.221.79.104,1,0
2014-11-28 15:44:02.256,288,9.6,56.17315,10.18924,61.48468,1.49,204.6094,16,10,1417185836,-0.2399292,1.048859,0.6454926,-11.79919,42.13924,-33.78207,218.7706,216.4929,20,-0.6373781,-1.513086,1.014432,0.9514338,-0.5124043,-1.071777,0.06381331,-3.260203,1.190636,0.2876063,-0.6799781,0.6060359,0.0.0.0,10.221.79.104,1,0
2014-11-28 15:44:02.290,289,9.633334,56.17315,10.18924,61.48468,1.49,204.6094,16,10,1417185836,-2.256104,2.340424,-1.678574,-12.32243,41.47878,-34.22825,215.6683,213.3905,20,-0.6813769,2.208721,0.4178558,0.9734805,-0.5191567,-1.115956,-1.486153,0.569974,0.8445322,-0.8202712,0.2747951,0.5669804,0.0.0.0,10.221.79.104,1,0
2014-11-28 15:44:02.323,290,9.666667,56.17315,10.18924,61.48468,1.49,204.6094,16,10,1417185836,-0.5289612,0.4036102,0.8489838,-13.33517,40.93687,-34.5918,210.7171,208.4394,20,0.2754843,-1.596009,-0.4035254,0.9843281,-0.4860075,-1.106741,1.395344,-1.71573,-0.4764173,-1.07591,0.858868,-0.2256023,0.0.0.0,10.221.79.104,1,0
2014-11-28 15:44:02.356,291,9.700001,56.17315,10.18924,61.48468,1.49,204.6094,16,10,1417185836,0.1746063,0.3148193,1.176437,-14.04408,40.80139,-34.65789,208.5236,206.2459,20,-2.648149,1.124257,0.1927758,0.9424099,-0.5614144,-1.116641,-1.749446,-0.3930312,-0.1539607,-0.02783958,-0.7347067,0.9308426,0.0.0.0,10.221.79.104,1,0
2014-11-28 15:44:02.389,292,9.733334,56.17315,10.18924,61.48468,1.49,204.6094,16,10,1417185836,-0.05477905,1.259323,-0.0221405,-12.98071,42.37631,-32.69141,217.1388,214.8611,20,-2.528345,3.226229,0.2877452,0.7926099,-0.5734615,-1.245232,-3.418387,4.807422,0.8190871,0.1900693,0.1377957,0.7934577,0.0.0.0,10.221.79.104,1,0
2014-11-28 15:44:02.423,293,9.766667,56.17315,10.18924,61.48468,1.49,204.6094,16,10,1417185836,-0.08595276,1.357056,-0.003677368,-11.78232,43.44319,-31.419,219.8542,217.5765,20,-2.768673,0.8129728,-0.4702272,0.6599624,-0.5903565,-1.324872,-2.476982,2.170234,-0.05920055,0.02136861,0.5546996,-0.09084449,0.0.0.0,10.221.79.104,1,0
2014-11-28 15:44:02.457,294,9.8,56.17315,10.18924,61.48468,1.49,204.6094,16,10,1417185836,-0.03872681,1.226456,-0.01651001,-10.14507,45.18744,-29.05593,223.448,221.1703,20,-2.6858,0.3796038,-0.5563634,0.4754062,-0.7431329,-1.365712,-2.806263,0.8159043,-0.4620197,0.05183611,0.3780118,0.1462804,0.0.0.0,10.221.79.104,1,0
2014-11-28 15:44:02.490,295,9.833334,56.17315,10.18924,61.48468,1.49,204.6094,16,10,1417185836,-0.1121826,0.5820007,0.1741943,-7.765152,48.3542,-23.32176,230.3948,228.1171,20,-1.730448,-1.724416,-0.04770973,-0.022863,-1.243947,-1.403173,-1.667263,-1.434661,-0.2961131,0.1865712,-0.08115315,0.01932488,0.0.0.0,10.221.79.104,1,0
2014-11-28 15:44:02.524,296,9.866667,56.17315,10.18924,61.48468,1.49,204.6094,16,10,1417185836,-0.2281494,1.004105,0.1056824,-7.393799,49.50574,-20.87607,232.4312,230.1535,20,-1.617564,-0.6195506,-0.276398,-0.3626241,-1.631574,-1.407254,-1.923411,-1.240265,-0.1034225,-0.07097679,-0.2841116,0.2622969,0.0.0.0,10.221.79.104,1,0
2014-11-28 15:44:02.556,297,9.900001,56.17315,10.18924,61.48468,1.49,204.6094,16,10,1417185836,-0.3197632,1.028519,0.1268616,-8.119583,50.47101,-18.14944,231.7573,229.4795,20,-1.534462,-0.2465035,-0.1799575,-0.584003,-1.866651,-1.395645,-1.655154,-0.6166192,-0.2681907,-0.06146317,0.01940443,0.05487639,0.0.0.0,10.221.79.104,1,0
2014-11-28 15:44:02.589,298,9.933333,56.17315,10.18924,61.48468,1.49,204.6094,16,10,1417185836,-0.4029846,0.8464203,0.06811523,-9.115433,51.70721,-13.96861,231.7161,229.4384,20,-1.927845,1.41282,0.002234925,-0.8981403,-2.184562,-1.359516,-1.852741,0.1729852,0.03096904,-0.2074239,-0.09868903,0.0009965186,0.0.0.0,10.221.79.104,1,0
2014-11-28 15:44:02.623,299,9.966667,56.17315,10.18924,61.48468,1.49,204.6094,16,10,1417185836,-0.3662872,0.7833252,0.1463165,-9.216705,52.21527,-11.88646,232.3994,230.1216,20,-1.390602,0.4411007,-0.1936723,-1.105108,-2.348918,-1.319943,-1.753135,1.695436,-0.02719313,-0.1149497,-0.173367,-0.1323892,0.0.0.0,10.221.79.104,1,0
2014-11-28 15:44:02.657,300,10,56.17315,10.18924,61.48468,1.49,204.6094,16,10,1417185836,-0.432785,0.851532,0.2073212,-9.486771,52.48622,-9.936508,235.6748,233.3971,20,-1.55935,-0.8421549,-0.5118947,-1.212919,-2.432849,-1.281514,-1.463081,-0.5120752,-0.3579341,-0.2617606,-0.1752763,-0.03703209,0.0.0.0,10.221.79.104,1,0
2014-11-28 15:44:02.690,301,10.03333,56.17315,10.18924,61.48468,1.49,204.6094,16,10,1417185836,0.04512024,1.138138,0.1340027,-9.588043,52.92651,-6.168808,238.9872,236.7095,20,-1.611117,1.207093,-0.245887,-1.274615,-2.514772,-1.23255,-1.631989,-0.1158643,-0.465512,0.06376953,0.1042235,0.001223235,0.0.0.0,10.221.79.104,1,0
2014-11-28 15:44:02.723,302,10.06667,56.17315,10.18924,61.48468,1.49,204.6094,16,10,1417185836,-0.4744568,1.021011,-0.287384,-10.12816,53.02812,-4.284958,242.1315,239.8537,20,-1.15403,-0.1449274,-0.3131768,-1.33963,-2.545876,-1.184622,-1.631607,1.108004,-0.1137764,0.06953782,0.165959,-0.4284526,0.0.0.0,10.221.79.104,1,0
2014-11-28 15:44:02.756,303,10.1,56.17315,10.18924,61.48468,1.49,204.6094,16,10,1417185836,-0.3088684,1.117096,-0.1071472,-10.82019,53.14667,-2.648979,243.6834,241.4057,20,-0.717214,0.556932,-0.6185293,-1.377226,-2.576609,-1.146153,-0.9499387,-0.3251869,-0.5133153,-0.2328162,0.1567159,-0.5603576,0.0.0.0,10.221.79.104,1,0
2014-11-28 15:44:02.790,304,10.13333,56.17315,10.18924,61.48468,1.49,204.6094,16,10,1417185836,0.1299286,1.322815,0.3299561,-11.96796,52.60478,0.3916168,248.5824,246.3047,20,-0.3041524,0.2259303,-0.6475162,-1.351502,-2.521171,-1.099946,-0.269356,0.6909531,-0.7678316,0.4302427,0.2736729,-0.1100055,0.0.0.0,10.221.79.104,1,0
2014-11-28 15:44:02.823,305,10.16667,56.17315,10.18924,61.48468,1.49,204.6094,16,10,1417185836,-0.2332306,1.628998,-0.008178711,-12.55872,52.35077,1.036102,251.3055,249.0277,20,-0.08191697,-0.4169892,-0.3349333,-1.340817,-2.511775,-1.080819,-0.3810642,-0.3406948,-0.3067588,0.04395509,0.7466545,-0.3884923,0.0.0.0,10.221.79.104,1,0
2014-11-28 15:44:02.856,306,10.2,56.17315,10.18924,61.48468,1.49,204.6094,16,10,1417185836,-0.05358887,1.401398,-0.1811371,-13.1326,52.04594,1.664055,252.4035,250.1258,20,0.3536209,-0.2744995,0.01426789,-1.337387,-2.512948,-1.077144,-0.1195044,-0.414058,-0.3267264,0.1124916,0.761665,-0.4470554,0.0.0.0,10.221.79.104,1,0
2014-11-28 15:44:02.890,307,10.23333,56.17315,10.18924,61.48468,1.49,204.6094,16,10,1417185836,-0.3940582,1.288452,-0.5061493,-13.53767,51.7411,1.49881,251.8461,249.5684,20,2.532097,-0.2182477,0.07019667,-1.287088,-2.483399,-1.109632,1.898867,-0.2944637,0.07776187,0.02288317,0.4473913,-0.8583949,0.0.0.0,10.221.79.104,1,0
2014-11-28 15:44:02.923,308,10.26667,56.17315,10.18924,61.48468,1.49,204.6094,16,10,1417185836,-0.6022186,1.290604,0.1406708,-13.82462,51.79193,-1.558304,247.0213,244.7435,20,4.016035,-0.1810795,0.02682549,-1.142053,-2.355024,-1.180871,3.596273,-0.06439804,0.03445243,-0.233983,0.2909438,-0.7652504,0.0.0.0,10.221.79.104,1,0
2014-11-28 15:44:02.956,309,10.3,56.17315,10.18924,61.48468,1.49,204.6094,16,10,1417185836,-0.4434662,1.50946,1.057251,-13.77399,51.67339,-4.549339,244.2812,242.0035,20,3.840955,0.3694209,0.2940772,-0.9587952,-2.187686,-1.237123,4.196398,-0.2574421,0.08486191,-0.33507,0.3457579,-0.04879751,0.0.0.0,10.221.79.104,1,0
2014-11-28 15:44:02.989,310,10.33333,56.17315,10.18924,61.48468,1.49,204.6094,16,10,1417185836,-0.6448517,1.388763,-0.03785706,-13.53769,51.36856,-8.217888,240.8528,238.5751,20,2.579879,1.798762,0.7220008,-0.4870905,-1.70741,-1.311185,2.841573,1.800494,0.6014943,-0.3430073,0.6102467,0.7774328,0.0.0.0,10.221.79.104,1,0
2014-11-28 15:44:03.023,311,10.36667,56.17315,10.18924,61.48468,1.49,204.6094,16,10,1417185836,-0.5164032,1.326782,0.0153656,-12.13675,50.06461,-16.26556,237.9436,235.6658,20,2.930725,0.2950431,0.727672,-0.1446667,-1.330266,-1.331731,2.727195,0.7542003,0.8265543,-0.4479551,0.4140604,-0.2050813,0.0.0.0,10.221.79.104,1,0
2014-11-28 15:44:03.056,312,10.4,56.17315,10.18924,61.48468,1.49,204.6094,16,10,1417185836,-0.01855469,1.203995,0.4576874,-11.44472,48.79451,-19.65318,235.3362,233.0584,20,3.056895,-1.920002,0.7820284,0.2448565,-0.9531161,-1.309479,3.119745,-0.8072225,0.5786778,-0.02348433,0.2933795,0.4808163,0.0.0.0,10.221.79.104,1,0
2014-11-28 15:44:03.089,313,10.43333,56.17315,10.18924,61.48468,1.49,204.6094,16,10,1417185836,0.03730774,0.9275055,0.09088135,-10.70204,47.27042,-23.02428,233.0205,230.7428,20,3.217409,-0.3995695,1.243936,0.5801864,-0.6894053,-1.261574,3.335113,-1.42799,1.109131,0.3402987,0.1210837,0.485506,0.0.0.0,10.221.79.104,1,0
2014-11-28 15:44:03.123,314,10.46667,56.17315,10.18924,61.48468,1.49,204.6094,16,10,1417185836,-0.05419922,0.7454681,0.2723846,-9.537384,45.49229,-26.44495,228.7192,226.4415,20,2.981771,-1.339209,1.123601,0.838483,-0.4569761,-1.199868,2.909049,-0.3640467,1.165097,0.08834544,-0.1132505,0.436035,0.0.0.0,10.221.79.104,1,0
2014-11-28 15:44:03.157,315,10.5,56.17315,10.18924,61.48468,1.49,204.6094,16,10,1417185836,-0.07667542,0.484024,0.3295135,-9.233582,43.32466,-29.38641,223.9208,221.6431,20,3.019167,-3.126002,1.080436,1.014376,-0.3581927,-1.12469,3.087768,-2.845906,1.057018,0.09706152,-0.1566659,0.6764569,0.0.0.0,10.221.79.104,1,0
2014-11-28 15:44:03.190,316,10.53333,56.17315,10.18924,61.48468,1.49,204.6094,16,10,1417185836,-0.171875,0.3671722,0.3922882,-10.21255,38.48141,-34.34391,216.2337,213.956,20,1.760696,-3.742158,0.8389549,1.18581,-0.3526916,-1.030841,2.35745,-3.823056,0.9349151,0.02372797,-0.4582715,0.8280651,0.0.0.0,10.221.79.104,1,0
2014-11-28 15:44:03.225,317,10.56667,56.17315,10.18924,61.48468,1.49,204.6094,16,10,1417185836,-0.3442535,0.1779633,0.4221497,-11.34344,36.26299,-36.21122,211.4348,209.157,20,0.2797488,-2.205949,1.084408,1.273091,-0.3977256,-0.987693,1.303502,-3.396041,0.9041635,-0.02347369,-0.5835525,0.9548887,0.0.0.0,10.221.79.104,1,0
2014-11-28 15:44:03.256,318,10.6,56.17315,10.18924,61.48468,1.49,204.6094,16,10,1417185836,-0.3283081,0.1852112,0.2733002,-13.2845,34.78969,-37.08706,207.355,205.0772,20,-0.7367555,-0.7282894,1.094701,1.319241,-0.416236,-0.9837168,0.2421772,-2.202957,1.092571,-0.1202874,-0.6545987,0.9287853,0.0.0.0,10.221.79.104,1,0
2014-11-28 15:44:03.289,319,10.63333,56.17315,10.18924,61.48468,1.49,204.6094,16,10,1417185836,-0.5407257,0.4133148,-0.3239746,-15.4619,33.99379,-37.59934,200.5446,198.2669,20,-1.861057,1.497708,0.9334949,1.370973,-0.3930434,-1.037473,-1.747061,0.9616064,1.124853,-0.2178498,-0.6086501,0.4289518,0.0.0.0,10.221.79.104,1,0
2014-11-28 15:44:03.323,320,10.66667,56.17315,10.18924,61.48468,1.49,204.6094,16,10,1417185836,-0.7067871,1.421585,-1.89473,-15.32686,34.56955,-37.00445,197.6919,195.4142,20,0.3277379,-0.2507537,0.1970662,1.387435,-0.3329407,-1.102835,-1.345916,1.342427,0.7103667,-0.6122544,-0.09292906,-0.7551598,0.0.0.0,10.221.79.104,1,0
2014-11-28 15:44:03.355,321,10.7,56.17315,10.18924,61.48468,1.49,204.6094,16,10,1417185836,-0.2638855,2.362335,-1.43187,-15.17496,35.43323,-36.16166,195.7626,193.4849,20,1.444915,-2.150711,0.04447053,1.408953,-0.3126541,-1.101005,1.483536,-1.312562,-0.06129728,-0.5308001,0.944702,-2.068499,0.0.0.0,10.221.79.104,1,0
2014-11-28 15:44:03.391,322,10.73333,56.17315,10.18924,61.48468,1.49,204.6094,16,10,1417185836,0.001083374,0.02774048,-0.641922,-15.25935,35.68726,-36.01295,193.9855,191.7077,20,1.656771,-1.672864,0.1321793,1.443393,-0.3443102,-1.055621,1.231436,-1.51477,0.1738968,0.06216422,0.4341609,-0.3568465,0.0.0.0,10.221.79.104,1,0
2014-11-28 15:44:03.423,323,10.76667,56.17315,10.18924,61.48468,1.49,204.6094,16,10,1417185836,-0.3048401,0.5785675,-0.02592468,-16.37335,35.14532,-36.04598,191.8226,189.5449,20,-0.03111424,-2.553184,0.4478662,1.486785,-0.359698,-1.012339,1.492508,-2.500228,0.3752935,0.1875961,-0.8203332,-0.1459541,0.0.0.0,10.221.79.104,1,0
2014-11-28 15:44:03.456,324,10.8,56.17315,10.18924,61.48468,1.49,204.6094,16,10,1417185836,-1.271072,1.756012,-0.121582,-17.52112,34.53569,-36.07905,189.6558,187.3781,20,-1.366666,1.992126,0.7759178,1.517551,-0.4121788,-1.011813,-0.9684988,-1.613107,0.5306695,0.03046008,0.04922393,0.6379793,0.0.0.0,10.221.79.104,1,0
2014-11-28 15:44:03.491,325,10.83333,56.17315,10.18924,61.48468,1.49,204.6094,16,10,1417185836,-0.4980164,0.3692627,1.144638,-18.61824,34.04459,-35.86423,185.7978,183.5201,20,-0.2628378,-0.6763415,-0.2830469,1.518423,-0.3738566,-1.036082,0.8507003,-1.452925,-0.424108,-0.5611298,0.3216534,0.7391961,0.0.0.0,10.221.79.104,1,0
2014-11-28 15:44:03.522,326,10.86667,56.17315,10.18924,61.48468,1.49,204.6094,16,10,1417185836,-0.3873444,-0.2158051,0.5458527,-18.97269,34.56955,-35.08756,185.4065,183.1288,20,-3.041517,2.123019,0.2897384,1.480687,-0.4164485,-1.063254,-2.157372,0.5595258,-0.04228368,-0.1907375,-1.089747,0.9903432,0.0.0.0,10.221.79.104,1,0
2014-11-28 15:44:03.556,327,10.9,56.17315,10.18924,61.48468,1.49,204.6094,16,10,1417185836,0.09529114,1.178131,1.166397,-17.85869,35.95819,-33.96387,187.3311,185.0534,20,-4.262911,5.230124,0.6979018,1.45924,-0.4171736,-1.091831,-3.079087,2.126011,0.2979013,0.1405883,-0.9966031,1.099285,0.0.0.0,10.221.79.104,1,0
2014-11-28 15:44:03.590,328,10.93333,56.17315,10.18924,61.48468,1.49,204.6094,16,10,1417185836,0.06256104,1.672104,-0.1442871,-16.23832,37.61778,-32.60882,189.2579,186.9801,20,-3.100104,2.754917,0.1322787,1.338886,-0.281574,-1.298534,-3.319659,3.65156,0.3299324,0.02111757,0.746216,-0.09194468,0.0.0.0,10.221.79.104,1,0
2014-11-28 15:44:03.624,329,10.96667,56.17315,10.18924,61.48468,1.49,204.6094,16,10,1417185836,0.04832458,1.016083,0.04483032,-12.05237,41.58044,-28.44451,197.6787,195.401,20,-2.602951,0.7993571,-0.2883596,1.201303,-0.3460315,-1.39237,-2.929825,1.278484,-0.2671827,0.1606137,0.2812566,0.1513662,0.0.0.0,10.221.79.104,1,0
2014-11-28 15:44:03.656,330,11,56.17315,10.18924,61.48468,1.49,204.6094,16,10,1417185836,-0.1358795,0.7852478,0.04170227,-9.80748,43.56177,-25.88313,201.9062,199.6285,20,-2.295651,0.399051,-0.1385296,1.020146,-0.5087191,-1.440503,-2.427156,0.607064,-0.2059495,0.1116059,0.02455898,0.1583031,0.0.0.0,10.221.79.104,1,0
2014-11-28 15:44:03.689,331,11.03333,56.17315,10.18924,61.48468,1.49,204.6094,16,10,1417185836,-0.1723633,0.7830048,0.06637573,-8.659714,45.39069,-23.43743,205.15,202.8723,20,-2.009125,-0.3093437,-0.03594575,0.2520383,-1.270899,-1.501469,-2.055363,-0.3564091,0.001510151,-0.1388524,-0.2934352,0.07609796,0.0.0.0,10.221.79.104,1,0
2014-11-28 15:44:03.724,332,11.06667,56.17315,10.18924,61.48468,1.49,204.6094,16,10,1417185836,-0.02561951,1.055084,0.07759094,-7.984558,47.93086,-18.34775,207.0478,204.7701,20,-2.167776,0.8127001,-0.2068421,-0.646421,-2.1673,-1.487818,-2.195526,0.4897858,-0.1611009,-0.0007972519,-0.06200426,-0.001973422,0.0.0.0,10.221.79.104,1,0
2014-11-28 15:44:03.756,333,11.1,56.17315,10.18924,61.48468,1.49,204.6094,16,10,1417185836,-0.1033173,0.9508209,0.07719421,-8.170242,48.79451,-15.81943,208.4444,206.1667,20,-2.052421,1.286597,-0.1034534,-1.059916,-2.545979,-1.433492,-2.151944,1.292757,-0.1116306,0.03671849,0.0286222,-0.03008253,0.0.0.0,10.221.79.104,1,0
2014-11-28 15:44:03.790,334,11.13333,56.17315,10.18924,61.48468,1.49,204.6094,16,10,1417185836,-0.1991272,0.8339233,-0.03652954,-8.2715,49.40416,-13.27458,210.6443,208.3666,20,-1.608951,1.7833,-0.3675303,-1.231653,-2.670927,-1.37499,-1.90798,1.610412,-0.2481704,-0.09145973,-0.1788434,-0.1359575,0.0.0.0,10.221.79.104,1,0
2014-11-28 15:44:03.823,335,11.16667,56.17315,10.18924,61.48468,1.49,204.6094,16,10,1417185836,-0.3262329,0.8422241,0.1769257,-8.2715,49.81061,-11.06023,214.8111,212.5334,20,-1.134699,-0.2077969,-0.7063966,-1.269386,-2.663083,-1.327907,-1.143171,0.6578118,-0.5962778,-0.2464494,-0.08920792,-0.1549468,0.0.0.0,10.221.79.104,1,0
2014-11-28 15:44:03.857,336,11.2,56.17315,10.18924,61.48468,1.49,204.6094,16,10,1417185836,-0.06459045,1.029144,0.2732391,-8.760986,50.0985,-9.060699,219.4193,217.1415,20,-1.550223,-0.04950337,-0.521659,-1.265577,-2.673951,-1.282035,-1.416546,-0.6866678,-0.646875,-0.07846576,-0.06701095,-0.03963742,0.0.0.0,10.221.79.104,1,0
2014-11-28 15:44:03.890,337,11.23333,56.17315,10.18924,61.48468,1.49,204.6094,16,10,1417185836,-0.2523041,1.069748,-0.03327942,-9.891846,49.97997,-5.507828,221.7176,219.4399,20,-1.853635,1.754566,-0.207839,-1.303256,-2.688764,-1.227057,-1.88973,1.682303,-0.2739193,0.1941986,0.2485777,-0.02225147,0.0.0.0,10.221.79.104,1,0
2014-11-28 15:44:03.923,338,11.26667,56.17315,10.18924,61.48468,1.49,204.6094,16,10,1417185836,-0.2868805,1.146027,-0.09159851,-10.53325,50.11543,-4.053627,224.9886,222.7109,20,-0.7944577,0.8289257,-0.9522353,-1.337005,-2.687208,-1.161512,-0.9594082,-0.4026353,-0.8454223,-0.3436148,0.2044812,-0.6293775,0.0.0.0,10.221.79.104,1,0
2014-11-28 15:44:03.962,339,11.3,56.17315,10.18924,61.48468,1.49,204.6094,16,10,1417185836,0.1459656,1.306503,0.1474762,-11.41096,50.11543,-2.467239,229.1756,226.8979,20,-0.7508311,1.629037,-0.8188131,-1.311058,-2.659686,-1.136335,-0.832024,0.8319175,-0.944073,0.1306466,0.2560348,-0.2895644,0.0.0.0,10.221.79.104,1,0
2014-11-28 15:44:03.990,340,11.33333,56.17315,10.18924,61.48468,1.49,204.6094,16,10,1417185836,0.1302338,1.326096,0.155426,-12.93008,50.0477,0.01152039,234.816,232.5383,20,-0.322051,0.1177884,-0.2020096,-1.277717,-2.571398,-1.099881,-0.4770445,0.7516565,-0.4991207,0.5003996,0.3386439,-0.108777,0.0.0.0,10.221.79.104,1,0
2014-11-28 15:44:04.023,341,11.36667,56.17315,10.18924,61.48468,1.49,204.6094,16,10,1417185836,-0.01452637,1.586151,-0.2424469,-13.82465,49.55659,0.7220917,239.4345,237.1568,20,0.5951585,-0.01992471,-0.1843022,-1.276059,-2.562783,-1.085843,-0.03662799,0.04010303,-0.3301242,0.05496377,0.7684712,-0.7046581,0.0.0.0,10.221.79.104,1,0
2014-11-28 15:44:04.056,342,11.4,56.17315,10.18924,61.48468,1.49,204.6094,16,10,1417185836,-0.08860779,1.366547,-0.4315643,-14.41542,49.5058,1.102165,240.6625,238.3848,20,0.9477476,0.05261235,-0.06170358,-1.255551,-2.544796,-1.088737,0.5576025,-0.01687052,-0.1761738,0.337784,0.6248831,-0.5773745,0.0.0.0,10.221.79.104,1,0
2014-11-28 15:44:04.091,343,11.43333,56.17315,10.18924,61.48468,1.49,204.6094,16,10,1417185836,-0.4493713,1.218262,-0.1196289,-15.24248,49.48885,-0.7982025,238.7176,236.4399,20,4.139388,-0.01854679,-0.05362648,-1.145981,-2.442969,-1.147476,2.966438,0.1746086,-0.08509298,-0.06555235,0.2942177,-0.7179953,0.0.0.0,10.221.79.104,1,0
2014-11-28 15:44:04.123,344,11.46667,56.17315,10.18924,61.48468,1.49,204.6094,16,10,1417185836,-0.4010468,1.47258,0.8965912,-15.12434,49.43805,-3.260422,237.6577,235.38,20,3.657019,0.4555614,0.7670104,-0.9040232,-2.21743,-1.232973,4.179932,-0.05545417,0.2225173,-0.1848486,0.2747833,-0.3193189,0.0.0.0,10.221.79.104,1,0
2014-11-28 15:44:04.156,345,11.5,56.17315,10.18924,61.48468,1.49,204.6094,16,10,1417185836,-0.7903442,1.34964,0.2031403,-14.90491,49.28563,-6.350594,234.9294,232.6517,20,2.614436,1.287779,0.8931241,-0.5879511,-1.901868,-1.30862,3.186729,1.083388,0.8725075,-0.5699093,0.7240217,1.007288,0.0.0.0,10.221.79.104,1,0
2014-11-28 15:44:04.189,346,11.53333,56.17315,10.18924,61.48468,1.49,204.6094,16,10,1417185836,-0.457489,1.373901,-0.1259308,-14.39856,48.84534,-10.01914,231.4885,229.2108,20,2.879092,0.8033255,0.644343,-0.2458559,-1.528623,-1.349582,2.695406,0.9944142,0.912066,-0.5520514,0.2857055,-0.1138266,0.0.0.0,10.221.79.104,1,0
2014-11-28 15:44:04.222,347,11.56667,56.17315,10.18924,61.48468,1.49,204.6094,16,10,1417185836,0.08834839,1.202011,0.3997498,-12.1199,47.27043,-16.84396,228.3547,226.077,20,2.576143,0.6318901,0.9287777,0.1785048,-1.087172,-1.348096,2.81702,0.8456897,0.6466655,-0.2619545,0.3985968,-0.02323093,0.0.0.0,10.221.79.104,1,0
2014-11-28 15:44:04.256,348,11.6,56.17315,10.18924,61.48468,1.49,204.6094,16,10,1417185836,0.08381653,1.020523,0.318985,-11.02278,46.13583,-19.96719,226.2689,223.9912,20,3.199806,-1.449942,1.351108,0.5334365,-0.7328739,-1.319968,2.467785,-1.463503,1.253853,0.2544007,0.233304,0.5842305,0.0.0.0,10.221.79.104,1,0
2014-11-28 15:44:04.289,349,11.63333,56.17315,10.18924,61.48468,1.49,204.6094,16,10,1417185836,-0.08114624,0.8885956,0.1116943,-9.942535,45.05202,-22.67728,224.5589,222.2812,20,2.901519,-2.13292,1.249748,1.023407,-0.3306302,-1.218774,2.858323,-1.23612,1.304255,0.01916109,-0.02766663,0.4364887,0.0.0.0,10.221.79.104,1,0
2014-11-28 15:44:04.326,350,11.66667,56.17315,10.18924,61.48468,1.49,204.6094,16,10,1417185836,-0.07510376,0.5632935,0.3295441,-8.558456,41.96994,-27.86613,215.7004,213.4226,20,2.900597,-3.899517,1.149829,1.190885,-0.2629884,-1.140512,2.954018,-3.613292,1.164264,0.07851748,-0.1270632,0.706376,0.0.0.0,10.221.79.104,1,0
2014-11-28 15:44:04.356,351,11.7,56.17315,10.18924,61.48468,1.49,204.6094,16,10,1417185836,-0.1123505,0.4679565,0.3858337,-9.115463,39.85313,-30.16311,210.1814,207.9037,20,2.546404,-4.146479,1.036966,1.237192,-0.2619915,-1.113988,2.863043,-3.896463,1.157956,0.07292241,-0.2388804,0.7432491,0.0.0.0,10.221.79.104,1,0
2014-11-28 15:44:04.389,352,11.73333,56.17315,10.18924,61.48468,1.49,204.6094,16,10,1417185836,-0.1975861,0.2540894,0.4250183,-10.06068,37.88873,-31.6834,204.9486,202.6708,20,1.154827,-3.48907,0.9990631,1.411337,-0.3241493,-1.014782,1.518317,-3.780173,0.9515744,-0.0005024585,-0.5382695,0.9354526,0.0.0.0,10.221.79.104,1,0
2014-11-28 15:44:04.423,353,11.76667,56.17315,10.18924,61.48468,1.49,204.6094,16,10,1417185836,-0.2789001,0.1632385,0.1786499,-11.54602,36.53397,-33.1376,202.0437,199.766,20,-0.1697504,-1.926631,1.038362,1.484899,-0.3619367,-1.002561,0.2148893,-2.503739,1.073347,-0.05696306,-0.6656671,0.8389584,0.0.0.0,10.221.79.104,1,0
2014-11-28 15:44:04.456,354,11.8,56.17315,10.18924,61.48468,1.49,204.6094,16,10,1417185836,-0.4765167,0.1681061,0.0894165,-15.07372,34.75584,-33.38548,191.9599,189.6822,20,-0.9694594,-0.4948643,0.9939058,1.519829,-0.3696283,-1.016639,-0.6011615,-1.260946,1.052174,-0.08879081,-0.6871057,0.6693363,0.0.0.0,10.221.79.104,1,0
2014-11-28 15:44:04.489,355,11.83333,56.17315,10.18924,61.48468,1.49,204.6094,16,10,1417185836,-0.7774963,0.9148865,-1.070358,-15.54633,35.16228,-32.69143,188.9829,186.7052,20,-0.881056,0.2686536,0.3043274,1.547703,-0.3415097,-1.081112,-1.393049,0.4976807,0.499075,-0.7094803,-0.1671341,-0.2959051,0.0.0.0,10.221.79.104,1,0
2014-11-28 15:44:04.523,356,11.86667,56.17315,10.18924,61.48468,1.49,204.6094,16,10,1417185836,-0.3803864,1.915314,-2.136078,-15.91767,36.009,-32.12959,186.942,184.6643,20,1.611071,-1.787819,0.04751053,1.559477,-0.3378449,-1.094525,0.6153705,-1.131719,0.2294592,-0.4607095,0.495536,-1.455388,0.0.0.0,10.221.79.104,1,0
2014-11-28 15:44:04.557,357,11.9,56.17315,10.18924,61.48468,1.49,204.6094,16,10,1417185836,-0.06802368,1.855545,-0.8834839,-16.10333,36.22914,-31.45205,185.9849,183.7071,20,1.1087,-1.356229,0.1456416,1.596844,-0.3638462,-1.046682,1.433317,-1.803645,-0.02188042,-0.07425544,1.163072,-0.9079869,0.0.0.0,10.221.79.104,1,0
2014-11-28 15:44:04.589,358,11.93333,56.17315,10.18924,61.48468,1.49,204.6094,16,10,1417185836,-0.04919434,0.1632233,-0.6468811,-16.91352,36.19528,-31.78255,183.1073,180.8296,20,1.406711,-2.819364,0.681177,1.641017,-0.3758305,-1.011679,1.543533,-2.056053,0.4720637,0.3681566,-0.5002354,-0.3322991,0.0.0.0,10.221.79.104,1,0
2014-11-28 15:44:04.623,359,11.96667,56.17315,10.18924,61.48468,1.49,204.6094,16,10,1417185836,-0.4820862,1.330383,-0.1598816,-18.1288,35.82272,-32.17916,180.4373,178.1596,20,-0.07115993,1.309928,0.1189352,1.686741,-0.4564303,-1.007308,-1.014254,-2.156424,0.2755876,-0.1331563,0.1868296,0.4750497,0.0.0.0,10.221.79.104,1,0
2014-11-28 15:44:04.656,360,12,56.17315,10.18924,61.48468,1.49,204.6094,16,10,1417185836,-1.570007,2.036133,-0.7863617,-19.19216,35.39935,-32.12959,177.3546,175.0768,20,0.8107003,0.616746,-0.1611058,1.68831,-0.4513842,-1.020081,-0.1087114,1.312982,0.1270626,-0.7625613,0.8471903,0.4439843,0.0.0.0,10.221.79.104,1,0
2014-11-28 15:44:04.689,361,12.03333,56.17315,10.18924,61.48468,1.49,204.6094,16,10,1417185836,0.01731873,0.06636047,0.631958,-20.57623,35.4671,-31.76603,174.5377,172.2599,20,-1.815369,0.8012922,-0.1244005,1.689552,-0.4803294,-0.9974571,-0.5665486,-0.7553967,-0.1271597,-0.1450143,-0.732703,1.311488,0.0.0.0,10.221.79.104,1,0
2014-11-28 15:44:04.725,362,12.06667,56.17315,10.18924,61.48468,1.49,204.6094,16,10,1417185836,0.2475128,0.605896,1.415817,-20.9138,36.31383,-31.43552,174.4885,172.2108,20,-3.600818,4.904047,0.3838521,1.634535,-0.5057614,-1.044786,-2.706609,2.207157,0.1330988,0.5292586,-0.5854898,1.516987,0.0.0.0,10.221.79.104,1,0
2014-11-28 15:44:04.756,363,12.1,56.17315,10.18924,61.48468,1.49,204.6094,16,10,1417185836,-0.2402954,1.648727,-0.4462738,-20.08675,37.34683,-30.65885,176.0789,173.8012,20,-3.652009,4.844351,0.2347643,1.57612,-0.4704573,-1.112574,-3.638369,4.907101,0.3919793,0.1902781,0.0902051,1.603465,0.0.0.0,10.221.79.104,1,0
2014-11-28 15:44:04.791,364,12.13333,56.17315,10.18924,61.48468,1.49,204.6094,16,10,1417185836,0.2125397,1.271149,-0.02854919,-18.09504,40.49664,-27.94875,182.7086,180.4308,20,-2.628591,0.8526582,-0.6506475,1.408792,-0.4818825,-1.239288,-2.939432,1.835465,-0.4094149,0.09677658,0.5545087,0.2961277,0.0.0.0,10.221.79.104,1,0
2014-11-28 15:44:04.823,365,12.16667,56.17315,10.18924,61.48468,1.49,204.6094,16,10,1417185836,0.1450195,1.134491,-0.08067322,-16.98104,42.52879,-25.83355,184.935,182.6573,20,-1.902625,-0.8146027,0.3034946,1.202472,-0.6481722,-1.30277,-2.415958,0.01127889,-0.3302685,0.3926581,0.2546835,0.159025,0.0.0.0,10.221.79.104,1,0
2014-11-28 15:44:04.856,366,12.2,56.17315,10.18924,61.48468,1.49,204.6094,16,10,1417185836,-0.2970276,0.6744995,0.01324463,-15.68137,44.2392,-23.50353,189.4974,187.2197,20,-2.016891,-1.376537,0.2438872,1.040268,-0.8285908,-1.35546,-1.98986,-1.146959,0.4228683,0.05267744,-0.1591251,0.1294579,0.0.0.0,10.221.79.104,1,0
2014-11-28 15:44:04.889,367,12.23333,56.17315,10.18924,61.48468,1.49,204.6094,16,10,1417185836,-0.1654816,0.8517609,-0.1143188,-15.34378,45.56007,-20.85953,190.0857,187.808,20,-1.992422,-0.7303541,-0.01670361,0.7847676,-1.122456,-1.399732,-2.02191,-1.225673,0.1348594,-0.1297964,-0.2785103,0.03428511,0.0.0.0,10.221.79.104,1,0
2014-11-28 15:44:04.923,368,12.26667,56.17315,10.18924,61.48468,1.49,204.6094,16,10,1417185836,-0.1358948,0.9843597,0.03103638,-15.44504,47.59221,-15.86899,188.0133,185.7355,20,-1.814056,-0.1615061,-0.01013146,0.398728,-1.529276,-1.416107,-1.946211,-0.5230141,-0.06424765,0.02445399,-0.06261393,-0.07400321,0.0.0.0,10.221.79.104,1,0
2014-11-28 15:44:04.958,369,12.3,56.17315,10.18924,61.48468,1.49,204.6094,16,10,1417185836,-0.2569885,0.8991852,0.072052,-15.47881,48.47281,-13.39025,187.5622,185.2845,20,-1.862789,0.4429385,0.180275,0.02789183,-1.902561,-1.407049,-1.789513,-0.08502243,0.06057599,0.01823217,-0.002263621,-0.02206,0.0.0.0,10.221.79.104,1,0
2014-11-28 15:44:04.990,370,12.33333,56.17315,10.18924,61.48468,1.49,204.6094,16,10,1417185836,-0.3424988,0.6955261,0.1706238,-15.85014,49.08243,-10.81236,187.5163,185.2386,20,-1.559049,0.978353,-0.2172894,-0.4450799,-2.32837,-1.359241,-1.730284,1.335646,-0.03245424,-0.1708123,-0.2347246,-0.02025176,0.0.0.0,10.221.79.104,1,0
2014-11-28 15:44:05.024,371,12.36667,56.17315,10.18924,61.48468,1.49,204.6094,16,10,1417185836,-0.4407654,0.8858337,0.2341614,-15.79951,49.70903,-6.598488,190.8334,188.5557,20,-1.428366,-1.040422,-0.644783,-0.5587571,-2.429028,-1.316366,-1.454072,-0.7341529,-0.5589178,-0.3192742,-0.1591521,0.02394764,0.0.0.0,10.221.79.104,1,0
