AccX,AccY,AccZ
-0.6895301 , 1.2641385 , 9.193734
-0.7661445 , 0.80445176 , 10.457873
0.34476504 , 1.0342951 , 11.300632
1.0342951 , 0.9959879 , 11.300632
0.6512229 , 0.80445176 , 10.151415
-0.4213795 , 0.842759 , 9.078813
-0.2681506 , 0.9959879 , 9.040505
-0.22984336 , 1.0726024 , 9.80665
0.7661445 , 1.1109096 , 10.228029
0.91937345 , 1.1875241 , 10.228029
0.9959879 , 1.1109096 , 9.500193
0.7661445 , 1.3024458 , 8.619126
0.34476504 , 1.9536686 , 9.691729
0.5363012 , 1.6089035 , 9.959879
0.6895301 , 1.3790601 , 9.653421
0.61291564 , 1.4939818 , 9.730036
0.5363012 , 2.1068976 , 9.500193
-0.076614454 , 1.9536686 , 8.619126
-0.2681506 , 1.8387469 , 9.500193
0.30645782 , 1.3024458 , 9.883265
0.076614454 , 1.5705963 , 9.730036
-0.076614454 , 1.7621324 , 9.921572
-0.15322891 , 1.8770541 , 9.615114
-0.076614454 , 1.8004397 , 9.270349
0.076614454 , 1.9919758 , 9.959879
0.30645782 , 1.9153614 , 10.457873
0.22984336 , 1.8004397 , 10.0748005
0.19153613 , 1.8387469 , 9.193734
0.30645782 , 2.1068976 , 9.768343
0.4213795 , 2.030283 , 10.113108
0.38307226 , 1.8387469 , 9.883265
0.30645782 , 1.685518 , 9.500193
0.38307226 , 1.7621324 , 9.500193
0.34476504 , 2.1068976 , 9.615114
0.5363012 , 2.1452048 , 9.883265
0.11492168 , 1.685518 , 9.5385
-0.038307227 , 1.6472107 , 9.576807
0.11492168 , 1.7238252 , 9.959879
0.19153613 , 1.8770541 , 10.113108
0.15322891 , 1.7621324 , 9.385271
0.19153613 , 1.7621324 , 9.193734
0.15322891 , 1.9536686 , 9.385271
0.22984336 , 1.8004397 , 9.921572
0.19153613 , 1.8004397 , 9.5385
0.34476504 , 1.9153614 , 9.270349
0.34476504 , 2.1068976 , 9.461885
0.30645782 , 2.1452048 , 9.844957
0.34476504 , 1.9919758 , 9.844957
0.38307226 , 2.0685902 , 9.921572
0.30645782 , 1.9919758 , 9.653421
0.22984336 , 1.9919758 , 9.193734
0.22984336 , 2.2218192 , 9.5385
0.19153613 , 2.2601264 , 9.730036
0.19153613 , 2.1452048 , 9.615114
0.19153613 , 2.0685902 , 9.576807
0.2681506 , 2.0685902 , 9.80665
0.2681506 , 2.0685902 , 10.0748005
0.11492168 , 1.9536686 , 9.461885
0.076614454 , 1.9919758 , 9.308656
0.15322891 , 2.0685902 , 9.270349
0.15322891 , 2.2218192 , 9.576807
0.15322891 , 1.9919758 , 9.883265
0.0 , 1.9536686 , 9.615114
0.038307227 , 1.9536686 , 9.461885
0.11492168 , 2.0685902 , 9.500193
0.15322891 , 2.183512 , 9.461885
0.15322891 , 2.1068976 , 9.615114
0.11492168 , 1.9919758 , 9.5385
0.076614454 , 2.2601264 , 9.5385
0.11492168 , 2.1452048 , 9.615114
0.076614454 , 2.0685902 , 9.461885
0.076614454 , 2.1452048 , 9.385271
0.076614454 , 2.0685902 , 9.653421
-0.038307227 , 1.9919758 , 9.423578
0.038307227 , 2.0685902 , 9.5385
0.11492168 , 2.183512 , 9.768343
0.0 , 2.1452048 , 9.232041
0.038307227 , 2.2218192 , 9.232041
0.19153613 , 2.2984335 , 9.615114
0.15322891 , 2.2218192 , 9.615114
0.0 , 2.183512 , 9.193734
0.11492168 , 2.2984335 , 9.461885
0.19153613 , 2.2218192 , 9.691729
0.11492168 , 2.0685902 , 9.5385
0.19153613 , 2.1068976 , 9.500193
0.15322891 , 2.1452048 , 9.346964
0.11492168 , 2.1452048 , 9.346964
0.22984336 , 2.1068976 , 9.500193
0.38307226 , 2.2984335 , 9.883265
0.49799395 , 2.2601264 , 9.959879
0.2681506 , 2.183512 , 9.730036
0.11492168 , 2.1068976 , 9.11712
0.34476504 , 2.336741 , 9.346964
0.5363012 , 2.336741 , 9.576807
0.4213795 , 2.4516625 , 9.921572
0.30645782 , 2.1068976 , 9.959879
0.38307226 , 2.2601264 , 9.959879
0.49799395 , 2.3750482 , 9.998186
0.49799395 , 2.6431987 , 9.844957
0.45968673 , 2.6048915 , 9.730036
0.4213795 , 2.4133554 , 9.576807
0.34476504 , 2.183512 , 9.615114
0.30645782 , 2.1068976 , 9.385271
0.34476504 , 2.1068976 , 9.155427
0.45968673 , 2.3750482 , 9.423578
0.45968673 , 2.6431987 , 9.232041
0.49799395 , 2.3750482 , 9.078813
0.61291564 , 2.1452048 , 9.040505
0.5363012 , 2.3750482 , 9.5385
0.4213795 , 2.6048915 , 9.730036
0.80445176 , 2.183512 , 10.840945
0.9576807 , 2.2601264 , 10.534488
0.9959879 , 2.2601264 , 10.036493
0.91937345 , 2.719813 , 9.040505
0.8810662 , 3.2561142 , 8.887277
0.8810662 , 3.3327289 , 9.500193
1.1492168 , 3.0262709 , 10.151415
0.6895301 , 2.528277 , 8.925584
0.4213795 , 2.183512 , 8.42759
0.22984336 , 2.030283 , 8.695741
0.45968673 , 2.183512 , 9.423578
0.6895301 , 1.685518 , 8.925584
0.7278373 , 1.2258313 , 8.963891
0.842759 , 1.3790601 , 9.500193
0.6895301 , 1.4556746 , 10.0748005
0.842759 , 1.2641385 , 9.883265
1.1492168 , 1.5705963 , 10.304645
1.3790601 , 1.9919758 , 10.457873
1.1109096 , 1.2258313 , 10.649409
1.3024458 , 1.340753 , 9.998186
0.8810662 , 1.3790601 , 9.308656
0.61291564 , 1.8004397 , 8.887277
1.0342951 , 1.1492168 , 8.963891
1.3024458 , 0.7661445 , 10.189722
2.030283 , 0.9576807 , 11.109096
2.0685902 , 1.1109096 , 10.534488
0.11492168 , 2.6048915 , 8.42759
0.7661445 , 2.681506 , 8.465898
1.340753 , 2.4899697 , 8.121132
1.0726024 , 2.336741 , 8.350976
0.7661445 , 2.336741 , 9.768343
-0.49799395 , 3.3327289 , 10.189722
0.9959879 , 3.5242648 , 9.80665
2.7964275 , 2.719813 , 9.232041
2.4516625 , 3.371036 , 10.534488
2.0685902 , 3.5625722 , 9.500193
2.719813 , 2.6431987 , 10.189722
3.4093432 , 0.6512229 , 9.80665
2.9879637 , 0.6895301 , 9.80665
3.6774938 , 0.11492168 , 10.266336
4.060566 , 0.4213795 , 10.266336
3.2944214 , 1.8387469 , 9.308656
3.4859576 , 2.528277 , 8.389283
3.7541082 , 0.9576807 , 8.197746
1.685518 , 3.4476504 , 6.895301
2.834735 , 4.3287168 , 8.274361
3.6008794 , 4.903325 , 8.121132
2.873042 , 5.133168 , 6.703765
2.7581203 , 5.094861 , 5.439626
3.715801 , 4.7500963 , 5.93762
4.2521024 , 4.711789 , 6.6654577
3.9073372 , 8.121132 , 7.0485296
2.3750482 , 5.9759274 , 7.2783732
2.4516625 , 5.209783 , 7.3166804
2.528277 , 5.5162406 , 7.5848308
3.064578 , 5.133168 , 7.8529816
3.4476504 , 5.707777 , 7.393295
3.3327289 , 3.5625722 , 7.240066
2.873042 , 4.3287168 , 7.0485296
3.7924154 , 6.090849 , 6.8186865
4.4819455 , 6.8186865 , 7.086837
4.060566 , 6.7803793 , 6.244078
3.9839516 , 6.703765 , 5.861006
3.1411927 , 5.5162406 , 5.554548
3.064578 , 5.554548 , 5.93762
3.1411927 , 5.592855 , 5.93762
4.4819455 , 6.167464 , 5.746084
3.9073372 , 5.4779334 , 6.435614
4.098873 , 5.66947 , 7.201759
4.7884035 , 6.4739213 , 6.9719152
4.0222588 , 6.8186865 , 5.707777
3.9839516 , 6.5505357 , 5.363012
3.9456444 , 6.244078 , 5.707777
4.098873 , 6.5122285 , 5.707777
3.9456444 , 6.742072 , 5.056554
4.098873 , 6.6654577 , 4.7500963
4.2904096 , 7.1634517 , 5.363012
3.5242648 , 6.933608 , 4.903325
3.9839516 , 6.8186865 , 5.363012
5.707777 , 7.967903 , 6.895301
4.405331 , 7.8529816 , 6.0142345
3.4859576 , 6.895301 , 5.899313
3.6774938 , 6.933608 , 6.0525417
3.5242648 , 7.0102224 , 5.592855
1.8004397 , 6.0525417 , 3.4476504
3.3327289 , 5.9759274 , 5.094861
3.8307228 , 6.205771 , 4.9416323
4.596867 , 6.7803793 , 4.6351743
5.8226986 , 7.3549876 , 6.0525417
6.7803793 , 6.3206925 , 7.0485296
6.6654577 , 5.66947 , 6.895301
6.4739213 , 5.056554 , 7.0485296
5.056554 , 4.711789 , 5.2480903
5.209783 , 4.4436383 , 4.4436383
5.171476 , 3.6774938 , 3.6774938
4.903325 , 2.566584 , 3.4859576
7.469909 , 2.6048915 , 5.554548
8.274361 , 2.183512 , 6.742072
9.691729 , 2.3750482 , 7.3166804
9.11712 , 3.217807 , 7.086837
7.967903 , 3.371036 , 6.703765
8.42759 , 3.5242648 , 7.0485296
7.6614456 , 3.217807 , 7.3549876
5.899313 , 2.6048915 , 7.086837
5.171476 , 1.340753 , 7.393295
5.899313 , 1.3790601 , 7.6614456
6.244078 , 1.6089035 , 7.699753
5.3247046 , -0.22984336 , 8.925584
5.401319 , -1.685518 , 8.0445175
5.056554 , -1.8004397 , 7.240066
4.4436383 , -1.4173675 , 6.8569937
2.9113493 , 1.5705963 , 6.3589997
2.528277 , 1.3790601 , 7.393295
1.8004397 , 2.0685902 , 8.887277
2.9879637 , 2.4899697 , 7.8529816
2.336741 , 2.873042 , 6.2823853
-3.5242648 , 3.2561142 , 8.389283
-2.681506 , 0.34476504 , 12.603078
-3.3327289 , 0.6512229 , 13.828909
-0.5363012 , 3.8307228 , 8.42759
2.4516625 , 5.5162406 , 9.768343
3.715801 , 7.5465236 , 9.461885
1.2641385 , 7.3549876 , 8.389283
-1.2258313 , 8.542512 , 7.1634517
-1.2258313 , 6.895301 , 6.0525417
-1.9919758 , 4.1371803 , 6.7803793
-2.1452048 , -0.9576807 , 10.840945
-3.6008794 , -1.3024458 , 15.897499
-2.7964275 , -0.8810662 , 18.885464
-1.4556746 , -0.6895301 , 19.421764
-3.4476504 , -1.9536686 , 15.322891
-3.1794999 , -2.2601264 , 11.492168
-3.0262709 , -1.9153614 , 7.967903
-3.3327289 , -1.1875241 , 6.3589997
-3.217807 , -0.7278373 , 4.711789
-3.4859576 , 0.038307227 , 5.2863975
-2.873042 , 0.4213795 , 4.9799395
-3.4093432 , -0.91937345 , 5.66947
-3.1794999 , -1.8004397 , 7.3166804
-3.371036 , -2.183512 , 11.070788
-3.4093432 , -2.2601264 , 13.828909
-2.3750482 , -0.038307227 , 10.151415
-2.4516625 , 0.49799395 , 8.580819
-2.4133554 , 0.49799395 , 8.236053
-2.2218192 , 0.076614454 , 7.2783732
-3.217807 , 0.15322891 , 8.121132
-3.2561142 , 0.038307227 , 9.844957
-3.2944214 , 0.19153613 , 10.228029
-3.5625722 , -0.7278373 , 8.810662
-3.371036 , -1.7238252 , 7.0485296
-2.4133554 , -0.9576807 , 6.6654577
-2.336741 , -0.34476504 , 7.967903
-2.9496565 , 0.9959879 , 8.848969
-3.4476504 , 0.80445176 , 9.193734
-4.0222588 , 0.7278373 , 9.921572
-4.2521024 , 0.30645782 , 9.883265
-3.9073372 , 0.2681506 , 10.228029
-3.7541082 , 1.7238252 , 10.419566
-4.405331 , 3.0262709 , 10.649409
-4.4436383 , 3.4476504 , 10.649409
-3.6391866 , 0.7661445 , 11.33894
-2.9879637 , -1.2641385 , 11.645397
-3.0262709 , -3.4859576 , 11.722012
-2.6048915 , -4.0222588 , 11.224017
-5.2863975 , -5.056554 , 9.730036
-4.4436383 , -5.2480903 , 9.385271
-3.7541082 , -4.596867 , 9.11712
-1.532289 , -3.4093432 , 7.6231384
-4.0222588 , -3.1411927 , 8.312668
-4.4436383 , -2.6431987 , 11.87524
-2.873042 , -2.4899697 , 9.998186
-7.8146744 , -4.5202527 , 8.6574335
-1.5705963 , -4.7500963 , 8.963891
0.4213795 , -2.9496565 , 7.699753
0.22984336 , -1.8770541 , 6.397307
-3.6391866 , 0.38307226 , 9.921572
-2.6431987 , 0.34476504 , 9.385271
-1.8770541 , 1.1492168 , 9.040505
-1.6472107 , 1.7621324 , 9.078813
-2.566584 , 3.0262709 , 7.699753
-2.6431987 , 3.3327289 , 6.0525417
-4.865018 , -0.076614454 , 7.201759
-4.7884035 , -0.2681506 , 7.8912888
-3.6008794 , -0.19153613 , 8.236053
-3.1411927 , 1.340753 , 3.0262709
-4.060566 , 0.5363012 , 2.873042
-3.4859576 , 0.076614454 , 0.19153613
-3.1411927 , 0.038307227 , 4.2521024
0.19153613 , -3.2561142 , 1.5705963
1.9153614 , -4.1371803 , 4.060566
0.61291564 , -4.903325 , 5.439626
-5.631162 , -6.244078 , 10.0748005
-11.87524 , -6.5122285 , 17.238253
-8.963891 , -5.056554 , 12.641385
-8.350976 , -7.393295 , 11.645397
-9.423578 , -9.998186 , 12.220005
-10.419566 , -9.078813 , 13.867216
-9.998186 , -7.6231384 , 13.254301
-9.730036 , -5.861006 , 13.790602
-8.542512 , -3.4476504 , 12.29662
-8.121132 , -2.6431987 , 11.377247
-7.5848308 , -2.873042 , 11.032481
-7.8146744 , -2.1068976 , 10.381259
-6.129156 , -1.6472107 , 7.699753
-4.5202527 , -1.8387469 , 6.244078
-2.719813 , -1.1109096 , 6.742072
-2.4899697 , -1.8387469 , 5.899313
-2.6431987 , -4.2521024 , 5.056554
-4.3287168 , -4.865018 , 5.0182467
-5.4779334 , -5.056554 , 3.8307228
-5.66947 , -5.401319 , 3.3327289
-6.703765 , -6.090849 , 3.2944214
-7.8529816 , -6.2823853 , 2.7964275
-8.925584 , -6.2823853 , 3.3327289
-10.419566 , -6.8569937 , 3.9073372
-9.959879 , -7.0485296 , 3.6391866
-9.844957 , -6.7803793 , 3.4093432
-10.572795 , -6.9719152 , 2.873042
-11.33894 , -8.465898 , 1.4939818
-10.342952 , -8.312668 , 0.6512229
-9.002198 , -8.887277 , 0.4213795
-7.8529816 , -8.42759 , 0.4213795
-6.7803793 , -6.397307 , 2.1452048
-6.205771 , -5.93762 , 3.4859576
-4.4819455 , -5.66947 , 2.2601264
-5.554548 , -6.244078 , 1.6472107
-7.6614456 , -7.3549876 , 2.6048915
-8.312668 , -8.42759 , 3.1028855
-6.397307 , -9.002198 , 2.1068976
-5.363012 , -8.159439 , 0.7661445
-4.673482 , -7.6231384 , -0.30645782
-3.9073372 , -7.469909 , -1.0726024
-3.7924154 , -7.5848308 , -0.5746084
-4.213795 , -7.8529816 , 0.38307226
-4.865018 , -4.903325 , 0.4213795
-2.6431987 , -4.711789 , 0.6895301
-2.7964275 , -5.094861 , 0.22984336
-4.2904096 , -5.171476 , -0.5363012
-4.7884035 , -5.094861 , -0.2681506
-5.2480903 , -4.7884035 , 0.61291564
-7.2783732 , -4.5202527 , 1.4556746
-13.292608 , -4.3287168 , 3.1794999
-14.326903 , -4.8267107 , 4.9416323
-12.411542 , -6.244078 , 5.554548
-10.113108 , -8.236053 , 3.715801
-9.232041 , -10.189722 , -3.4093432
-9.883265 , -11.951855 , -2.834735
-8.734048 , -12.181698 , -1.1875241
-13.369223 , -11.760319 , -0.7661445
-11.568783 , -10.726024 , 2.336741
2.9496565 , -10.955867 , 0.5746084
1.6472107 , -13.905523 , -1.6472107
-0.9959879 , -15.629349 , -5.899313
-1.7238252 , -9.768343 , -2.4133554
-1.4939818 , -11.453861 , -3.7924154
-4.596867 , -12.220005 , -4.4436383
-3.371036 , -8.389283 , -5.133168
-5.5162406 , -9.232041 , -3.4093432
-6.742072 , -12.29662 , -6.8569937
-2.528277 , -10.955867 , -8.0445175
-4.6351743 , -6.167464 , -3.0262709
-4.213795 , -5.2863975 , 0.0
-4.367024 , -5.7843914 , -0.38307226
-7.6614456 , -3.715801 , -2.4899697
-3.9073372 , -3.2944214 , 0.076614454
-2.3750482 , -1.6089035 , -0.49799395
-3.1028855 , -2.2218192 , 1.3024458
-3.4859576 , -1.0342951 , 0.30645782
-0.8810662 , -0.9959879 , -0.4213795
-2.336741 , -1.7238252 , -1.6472107
-1.9919758 , -0.38307226 , -1.4556746
-5.592855 , -1.340753 , -1.4939818
-5.899313 , -1.3024458 , -1.4556746
-7.1251445 , -2.1452048 , -1.7238252
-7.469909 , -3.6774938 , -5.171476
-9.423578 , -2.4899697 , -7.086837
-8.197746 , -3.7541082 , -3.5625722
-9.461885 , -4.596867 , -1.8387469
-12.220005 , -6.205771 , 4.6351743
-9.576807 , -7.0102224 , -0.61291564
-9.959879 , -6.588843 , -3.371036
-7.776367 , -5.9759274 , -3.7541082
-13.177686 , -7.776367 , 3.0262709
-11.109096 , -8.772355 , 1.1109096
-8.925584 , -10.113108 , 0.45968673
-9.193734 , -9.078813 , 1.8387469
-11.798626 , -8.274361 , 1.3790601
-10.994174 , -7.0102224 , 1.0342951
-9.232041 , -6.588843 , 1.1109096
-5.439626 , -4.175488 , 2.1068976
-4.5202527 , -3.2944214 , 0.9959879
-4.711789 , -3.4476504 , 0.2681506
-4.8267107 , -3.7924154 , 0.9576807
-4.2521024 , -4.5202527 , 2.834735
-4.4819455 , -4.9799395 , 4.0222588
-5.094861 , -5.056554 , 4.2521024
-5.056554 , -5.401319 , 3.4093432
-2.030283 , -4.9799395 , 1.7621324
-1.532289 , -5.094861 , 1.8770541
-1.4173675 , -5.5162406 , 3.064578
-5.5162406 , -7.431602 , 6.0142345
-7.73806 , -7.393295 , 6.129156
-9.423578 , -8.121132 , 6.703765
-8.542512 , -9.232041 , 8.121132
-8.159439 , -10.419566 , 8.504205
-7.73806 , -10.611102 , 6.7803793
-8.0445175 , -12.756307 , 4.4819455
-7.8146744 , -15.629349 , 0.6512229
-3.1028855 , -7.6614456 , 2.719813
-3.1411927 , -8.810662 , 0.9959879
-2.7964275 , -9.921572 , 0.30645782
-2.9113493 , -6.5122285 , -1.2258313
-6.435614 , -4.2521024 , 2.4516625
-7.3166804 , -1.4556746 , 3.6774938
-6.5122285 , -0.7278373 , 1.340753
-4.673482 , -2.2218192 , 1.5705963
-5.707777 , -3.8307228 , 0.61291564
-6.397307 , -5.0182467 , 1.3790601
-7.5848308 , -4.367024 , 1.532289
-9.768343 , -4.175488 , 0.34476504
-9.270349 , -2.0685902 , 0.45968673
-4.8267107 , -7.086837 , 1.0342951
-3.7924154 , -8.772355 , 0.91937345
-4.405331 , -10.381259 , 1.0726024
-5.363012 , -10.0748005 , 1.9919758
-6.090849 , -9.078813 , 1.9919758
-5.7843914 , -7.967903 , 0.5363012
-1.532289 , -9.308656 , -0.5746084
-3.0262709 , -9.653421 , -1.0342951
-4.2521024 , -9.921572 , -1.8004397
-6.895301 , -8.734048 , -2.7964275
-7.0485296 , -9.461885 , -2.6431987
-7.3549876 , -10.726024 , -3.8307228
-12.181698 , -10.802638 , -2.336741
-9.730036 , -10.036493 , -2.030283
-1.6472107 , -10.189722 , -4.4819455
-4.673482 , -9.921572 , -2.2218192
-3.0262709 , -10.534488 , 0.842759
-4.213795 , -12.220005 , -3.1794999
-4.175488 , -13.292608 , -4.865018
-1.9153614 , -11.109096 , -1.8387469
-1.9919758 , -9.615114 , -0.7661445
-2.6431987 , -6.703765 , -2.2601264
-3.5625722 , -5.861006 , -0.6895301
-5.5162406 , -8.772355 , -0.7278373
-4.55856 , -7.8529816 , -1.2641385
-3.5625722 , -6.742072 , -0.8810662
-1.340753 , -4.405331 , -0.15322891
-2.9879637 , -3.9073372 , -0.11492168
-2.834735 , -4.9799395 , 0.49799395
-3.371036 , -3.5242648 , 0.11492168
-2.7581203 , -3.6008794 , 1.4556746
-2.7581203 , -4.213795 , 1.7238252
-2.681506 , -5.209783 , 1.9536686
-4.060566 , -5.93762 , 3.7924154
-7.73806 , -8.350976 , 3.8307228
-10.649409 , -10.994174 , 3.4476504
-12.105083 , -12.832921 , 3.5242648
-11.9135475 , -12.028469 , 5.171476
-7.776367 , -5.439626 , 6.6654577
-7.240066 , -7.2783732 , 6.2823853
-7.1634517 , -9.80665 , 3.217807
-5.554548 , -13.713987 , 0.5363012
-5.861006 , -13.254301 , 0.19153613
-2.1452048 , -6.3206925 , -1.0726024
-0.5363012 , -4.55856 , -0.5363012
-2.4133554 , -5.592855 , -1.7238252
-2.6048915 , -5.2863975 , -3.2944214
-3.217807 , -6.090849 , -3.064578
-4.4436383 , -5.8226986 , -2.336741
-4.673482 , -5.9759274 , -3.4093432
-3.9839516 , -4.596867 , -2.9496565
-4.711789 , -4.865018 , -1.6472107
-3.715801 , -5.8226986 , -1.4556746
-2.9496565 , -12.373235 , -0.7278373
-1.4939818 , -8.619126 , -2.183512
-1.1875241 , -8.42759 , -2.4516625
-1.2641385 , -9.998186 , 1.4173675
0.11492168 , -7.699753 , 0.7278373
1.6089035 , -5.0182467 , -1.9536686
3.1794999 , -0.2681506 , -1.685518
-0.45968673 , -2.681506 , -1.6089035
-3.9073372 , -19.230228 , -8.121132
-8.159439 , -17.391481 , -2.9879637
-6.895301 , -11.951855 , -0.34476504
0.6512229 , -13.982138 , 1.9919758
3.4859576 , -11.760319 , 2.2218192
2.6048915 , -11.33894 , -2.1068976
0.4213795 , -14.020445 , -4.865018
-3.064578 , -16.625336 , -0.038307227
-4.596867 , -15.629349 , 3.6391866
-8.00621 , -11.032481 , 4.098873
-1.8770541 , -14.939818 , 0.038307227
-0.11492168 , -10.036493 , -0.2681506
1.4939818 , -7.201759 , -1.0726024
3.4859576 , -7.73806 , -1.8387469
3.3327289 , -17.96609 , -3.3327289
2.9496565 , -17.659632 , -1.1875241
3.0262709 , -15.131354 , 0.2681506
2.0685902 , -13.254301 , 0.9959879
0.80445176 , -11.453861 , -7.3166804
-3.1411927 , -10.534488 , -2.6048915
-6.8569937 , -8.465898 , 5.9759274
-1.7238252 , -6.703765 , -2.3750482
-0.8810662 , -6.703765 , -3.4476504
-1.532289 , -5.209783 , -1.340753
-1.0342951 , -4.3287168 , -0.7661445
0.61291564 , -2.336741 , -1.2258313
1.5705963 , -1.6472107 , -1.2258313
2.030283 , -1.0726024 , -0.5363012
1.6089035 , -0.80445176 , 0.34476504
-0.45968673 , -1.685518 , 3.6391866
0.45968673 , -3.86903 , 7.1634517
1.9153614 , -9.002198 , 12.679692
1.6089035 , -18.08101 , 17.085024
-4.673482 , -18.885464 , 6.3589997
0.076614454 , -10.228029 , 7.469909
1.3790601 , -4.711789 , 8.00621
3.4476504 , -9.078813 , 6.0142345
-1.0342951 , -12.411542 , 10.802638
-3.8307228 , -18.272547 , 8.00621
3.064578 , -18.732235 , 0.15322891
5.4779334 , -3.4476504 , -3.6774938
5.66947 , -2.183512 , 0.5363012
0.15322891 , -4.673482 , -3.0262709
-1.340753 , -8.121132 , -7.469909
-3.0262709 , -11.990162 , -1.2641385
-3.7541082 , -12.334928 , -1.6089035
-3.6774938 , -12.220005 , -3.4093432
-2.873042 , -12.641385 , -3.4476504
-0.842759 , -10.342952 , 0.5363012
0.7661445 , -7.967903 , 0.38307226
0.5746084 , -8.121132 , 2.6431987
0.0 , -8.350976 , 1.6089035
0.19153613 , -8.312668 , 1.2641385
0.076614454 , -7.929596 , 1.8004397
0.076614454 , -7.086837 , -4.903325
0.15322891 , -7.8529816 , -4.903325
-0.038307227 , -9.040505 , -2.719813
-0.30645782 , -10.91756 , -0.5363012
-3.9456444 , -10.457873 , 3.7924154
-4.098873 , -10.113108 , 2.681506
-2.2218192 , -11.645397 , -0.80445176
-0.5746084 , -13.254301 , -1.7621324
-0.6895301 , -13.40753 , -1.532289
-1.0342951 , -14.173674 , -0.7661445
-2.3750482 , -14.326903 , -0.076614454
-4.8267107 , -15.05474 , 0.19153613
-3.5242648 , -16.203957 , 0.6895301
-2.1068976 , -15.7825775 , 1.3024458
-0.038307227 , -12.641385 , 1.4173675
4.903325 , -9.883265 , 0.22984336
4.7884035 , -11.722012 , -3.7541082
2.4516625 , -15.1696615 , -3.6774938
2.566584 , -16.203957 , -1.685518
3.1028855 , -12.947843 , 1.7238252
2.7581203 , -12.449849 , -1.1109096
1.9919758 , -10.879252 , -4.865018
-5.209783 , -9.423578 , 2.1068976
-4.3287168 , -7.5465236 , 2.681506
-2.1068976 , -7.699753 , -1.1875241
-1.3790601 , -8.197746 , -2.030283
-0.6512229 , -5.094861 , -1.7621324
0.2681506 , -3.1028855 , -1.9153614
1.2641385 , -2.1068976 , -1.4939818
1.685518 , -1.4556746 , -0.842759
1.8004397 , -1.1492168 , -0.038307227
0.842759 , -1.5705963 , 1.4939818
0.22984336 , -1.8770541 , 3.4093432
0.2681506 , -3.4859576 , 6.9719152
2.7581203 , -16.16565 , 16.472107
0.6895301 , -19.804836 , 14.901511
-2.4899697 , -19.383457 , 8.887277
-1.1109096 , -12.143391 , 8.580819
4.175488 , -5.401319 , 5.554548
3.86903 , -8.542512 , 5.094861
1.1875241 , -10.342952 , 8.925584
-0.19153613 , -18.770542 , 4.55856
2.4516625 , -10.802638 , -1.6472107
4.060566 , -4.9799395 , -4.596867
6.090849 , -4.7500963 , -0.19153613
-0.19153613 , -9.423578 , -9.11712
0.61291564 , -13.024457 , -4.213795
-0.19153613 , -14.250289 , -1.0726024
-0.6512229 , -11.836933 , -2.7581203
-0.8810662 , -10.649409 , -3.7541082
-2.336741 , -10.994174 , -0.5363012
-4.1371803 , -9.844957 , 1.0342951
-3.3327289 , -8.963891 , 0.9576807
-2.2984335 , -8.121132 , 1.532289
-2.2984335 , -6.895301 , 1.4939818
-1.6089035 , -6.9719152 , 2.2218192
-0.49799395 , -7.3549876 , 2.4516625
-0.61291564 , -7.0485296 , 2.528277
-0.7278373 , -7.393295 , 0.49799395
0.2681506 , -8.121132 , -4.098873
1.4939818 , -10.955867 , -4.5202527
0.22984336 , -11.415554 , -0.6895301
-2.336741 , -11.109096 , 3.5242648
-4.213795 , -10.802638 , 7.240066
-0.842759 , -11.18571 , -3.7541082
-0.15322891 , -13.101071 , -5.439626
-0.5363012 , -13.139379 , -4.0222588
-0.49799395 , -13.139379 , 0.30645782
-1.1492168 , -13.713987 , 0.30645782
-1.8770541 , -14.863204 , -0.6895301
-3.064578 , -13.867216 , -0.7661445
-2.4516625 , -15.705963 , 0.9959879
0.45968673 , -12.603078 , 1.4556746
3.9073372 , -10.228029 , 1.685518
5.592855 , -10.764331 , 0.5746084
3.4859576 , -17.27656 , -4.8267107
3.7541082 , -17.123331 , -3.4476504
3.7924154 , -14.365211 , -1.6472107
3.2561142 , -12.220005 , 0.8810662
0.4213795 , -11.568783 , -4.367024
-2.9496565 , -10.6877165 , -1.7621324
-3.6774938 , -9.078813 , 1.9153614
-1.5705963 , -6.6654577 , -1.9153614
-1.1875241 , -6.244078 , -3.1411927
-1.6089035 , -5.7843914 , -2.834735
-0.7278373 , -4.55856 , -1.9919758
1.1492168 , -2.566584 , -1.1109096
1.685518 , -2.4133554 , -0.30645782
2.2984335 , -2.2218192 , -0.4213795
2.1452048 , -2.4133554 , 0.0
0.9959879 , -2.2218192 , 3.064578
1.1875241 , -3.9456444 , 6.205771
2.566584 , -8.465898 , 9.461885
4.0222588 , -15.705963 , 12.603078
-5.209783 , -19.498379 , 12.373235
-4.405331 , -12.871228 , 8.274361
-2.834735 , -7.201759 , 9.078813
2.4899697 , -10.0748005 , 6.3589997
1.5705963 , -14.211981 , 9.155427
-1.685518 , -19.804836 , 7.776367
1.4173675 , -17.96609 , 0.8810662
8.810662 , 0.6512229 , -4.596867
8.42759 , -0.49799395 , 2.2601264
-0.4213795 , -4.098873 , -0.6512229
-1.2258313 , -8.274361 , -8.810662
-2.4899697 , -14.097059 , -0.6895301
-4.6351743 , -12.832921 , -0.842759
-3.1028855 , -10.764331 , -1.4173675
-1.4939818 , -10.0748005 , -2.3750482
-0.19153613 , -10.496181 , -2.030283
-0.9576807 , -10.113108 , -0.4213795
-1.9919758 , -10.113108 , 0.842759
-0.80445176 , -9.5385 , 2.1068976
0.6895301 , -8.810662 , 0.80445176
1.9919758 , -7.929596 , 0.2681506
1.8770541 , -7.393295 , 1.6472107
0.7278373 , -6.895301 , -3.6391866
0.15322891 , -7.5848308 , -4.2521024
0.49799395 , -8.312668 , -3.371036
0.19153613 , -9.193734 , -2.2601264
-2.9879637 , -11.300632 , 1.4173675
-3.4859576 , -10.534488 , 1.8770541
-2.3750482 , -11.836933 , 0.5363012
-1.4556746 , -12.29662 , 0.30645782
-1.7621324 , -12.334928 , -1.2258313
-0.4213795 , -13.40753 , -2.2601264
1.0342951 , -13.484144 , -1.1492168
-2.566584 , -12.909535 , -0.34476504
-4.213795 , -13.637373 , 0.19153613
-3.3327289 , -15.131354 , 0.22984336
-1.1875241 , -15.705963 , 0.61291564
3.217807 , -9.078813 , 1.3024458
4.9799395 , -9.691729 , 1.1492168
3.6774938 , -13.101071 , -2.528277
1.4939818 , -16.089035 , -4.367024
3.2561142 , -15.47612 , -0.6895301
2.6048915 , -13.9438305 , 0.9576807
2.7964275 , -13.445837 , 0.9959879
-0.15322891 , -11.568783 , -4.3287168
-2.7581203 , -9.998186 , -1.532289
-3.6774938 , -8.504205 , 2.1452048
-2.528277 , -7.8529816 , -0.30645782
-1.532289 , -5.746084 , -3.715801
-0.7278373 , -4.711789 , -1.8387469
0.38307226 , -3.2561142 , -1.3024458
1.2258313 , -2.2218192 , -1.1875241
2.183512 , -1.7238252 , -0.5363012
1.685518 , -2.2218192 , 0.45968673
0.91937345 , -2.4899697 , 1.8770541
0.34476504 , -2.6048915 , 3.8307228
2.873042 , -6.8569937 , 9.155427
5.0182467 , -13.177686 , 11.836933
2.3750482 , -19.651608 , 12.5264635
-3.0262709 , -19.804836 , 11.760319
-2.834735 , -8.465898 , 9.308656
-0.30645782 , -5.707777 , 8.734048
2.183512 , -7.8146744 , 5.66947
-2.336741 , -13.522451 , 10.151415
-2.2218192 , -18.195932 , 7.431602
5.209783 , -16.587029 , -0.19153613
4.9799395 , -6.933608 , -4.060566
5.363012 , -4.098873 , 2.030283
-1.1492168 , -5.631162 , -3.1794999
-0.80445176 , -9.002198 , -8.350976
-1.7621324 , -12.871228 , -0.6512229
-2.7581203 , -12.373235 , -1.685518
-2.681506 , -11.683704 , -3.1028855
-0.49799395 , -10.611102 , -1.0726024
1.5705963 , -7.8146744 , -0.61291564
2.1452048 , -8.082825 , -1.2258313
0.842759 , -8.848969 , -0.91937345
-0.8810662 , -9.883265 , 0.9959879
-2.873042 , -9.040505 , 0.80445176
-1.7621324 , -8.734048 , 1.7238252
-0.7278373 , -8.082825 , 2.6048915
-0.15322891 , -7.3166804 , 2.2218192
1.1875241 , -8.121132 , -3.064578
0.91937345 , -10.6877165 , -1.8004397
0.34476504 , -11.683704 , 1.1492168
-1.6089035 , -10.496181 , 2.336741
-4.2521024 , -9.346964 , -0.19153613
-3.1794999 , -10.228029 , -2.3750482
-0.076614454 , -11.109096 , -2.1452048
2.4133554 , -10.6877165 , -0.7661445
1.3024458 , -13.982138 , -2.681506
0.9959879 , -14.709975 , -2.719813
-1.1492168 , -13.905523 , -1.1109096
-6.0142345 , -14.518439 , 0.30645782
-4.4819455 , -16.16565 , 0.34476504
-1.2641385 , -17.161638 , 0.30645782
1.0342951 , -12.909535 , 1.0726024
3.217807 , -10.113108 , 1.7621324
4.175488 , -11.070788 , 0.22984336
3.5625722 , -13.484144 , -4.3287168
2.1452048 , -15.591042 , -3.9073372
3.1028855 , -13.828909 , -0.8810662
2.7964275 , -11.492168 , -0.6512229
3.1411927 , -10.572795 , -1.2258313
1.7238252 , -10.611102 , 0.19153613
-3.7541082 , -10.151415 , 0.15322891
-3.7541082 , -9.078813 , -0.30645782
-2.873042 , -8.159439 , -2.1068976
-0.7661445 , -5.746084 , -1.5705963
0.4213795 , -3.9456444 , -1.6089035
1.0726024 , -2.7964275 , -2.0685902
1.685518 , -2.4516625 , -1.1492168
2.1452048 , -2.183512 , -0.30645782
1.4173675 , -2.2984335 , 0.7278373
0.4213795 , -1.8770541 , 2.566584
0.6512229 , -2.183512 , 4.903325
3.5625722 , -9.730036 , 12.258312
-2.4899697 , -19.804836 , 13.445837
-4.2521024 , -18.272547 , 9.193734
0.19153613 , -6.244078 , 7.5082164
2.6048915 , -7.699753 , 4.55856
1.6472107 , -8.465898 , 5.707777
-1.0342951 , -19.804836 , 8.236053
4.405331 , -15.131354 , -1.8004397
4.6351743 , -5.2480903 , -6.895301
8.542512 , -2.6431987 , -2.9113493
-0.11492168 , -5.9759274 , -3.5242648
-0.7278373 , -9.730036 , -7.1634517
-0.842759 , -11.760319 , -3.6008794
-3.5625722 , -12.947843 , -0.9959879
-2.183512 , -13.67568 , -0.5363012
0.8810662 , -11.530476 , 0.11492168
1.4939818 , -7.8529816 , 0.22984336
2.030283 , -6.205771 , -0.6512229
0.4213795 , -8.312668 , 0.38307226
-1.4173675 , -10.764331 , 1.0726024
-2.1068976 , -11.492168 , 0.8810662
-0.5363012 , -7.8529816 , 2.2218192
0.7661445 , -6.6654577 , 1.0726024
0.9576807 , -6.588843 , -3.9456444
0.38307226 , -8.42759 , -3.5242648
0.11492168 , -10.419566 , -1.7621324
-2.1068976 , -9.959879 , 1.340753
-3.1794999 , -9.653421 , 2.2218192
-2.030283 , -11.530476 , 0.45968673
0.15322891 , -12.641385 , -1.0726024
0.22984336 , -12.756307 , -1.1875241
0.19153613 , -13.9438305 , -0.61291564
-0.61291564 , -14.211981 , 0.61291564
-2.6048915 , -13.790602 , 1.3024458
-5.133168 , -15.552734 , 1.1109096
-3.3327289 , -16.127342 , 0.49799395
-0.22984336 , -14.748282 , 0.0
5.363012 , -9.193734 , 0.5363012
6.397307 , -11.377247 , -2.9879637
3.2561142 , -16.242264 , -4.367024
3.3327289 , -17.161638 , -1.9919758
1.9153614 , -13.9438305 , 1.8770541
2.2218192 , -13.522451 , 0.076614454
1.8004397 , -12.334928 , -1.9153614
0.038307227 , -11.453861 , -3.1411927
-3.6008794 , -9.002198 , 0.38307226
-2.2601264 , -7.240066 , -0.45968673
-1.4556746 , -6.5122285 , -2.6431987
-1.3790601 , -6.0525417 , -3.1794999
0.61291564 , -2.528277 , -1.6089035
1.3024458 , -1.9919758 , -2.0685902
2.030283 , -1.0342951 , -1.6472107
1.8770541 , -0.9576807 , -0.5363012
0.8810662 , -1.2641385 , 1.3790601
0.30645782 , -1.7621324 , 3.7541082
0.5746084 , -2.9113493 , 7.0102224
3.5625722 , -15.552734 , 17.161638
3.6008794 , -19.804836 , 15.1696615
-0.9576807 , -18.732235 , 10.189722
-1.1109096 , -12.334928 , 8.810662
4.175488 , -7.240066 , 6.205771
4.4819455 , -10.457873 , 8.121132
1.6089035 , -16.472107 , 13.9438305
-2.9496565 , -19.804836 , 7.431602
5.3247046 , -1.9919758 , -9.423578
11.990162 , -1.0342951 , -2.7581203
5.631162 , -1.7238252 , 5.094861
-3.1794999 , -11.33894 , -6.933608
-1.0726024 , -12.717999 , -3.1411927
-2.873042 , -14.173674 , -1.6472107
-4.6351743 , -14.863204 , -1.8387469
-0.038307227 , -11.147403 , -1.2258313
1.340753 , -7.431602 , -0.038307227
2.3750482 , -6.0142345 , 0.38307226
1.4556746 , -8.121132 , -0.15322891
-0.30645782 , -10.189722 , 1.2258313
-1.3790601 , -10.726024 , 0.9576807
-1.7238252 , -9.5385 , 2.566584
-1.3024458 , -8.42759 , 3.5242648
1.0342951 , -5.631162 , -0.5363012
1.8770541 , -5.7843914 , -5.7843914
2.336741 , -7.1251445 , -6.5122285
0.8810662 , -12.373235 , 0.7278373
-2.873042 , -11.645397 , 3.6391866
-5.4779334 , -11.224017 , 5.094861
-3.371036 , -12.564771 , 1.532289
0.91937345 , -11.798626 , -3.1411927
0.45968673 , -12.909535 , -2.873042
-1.0342951 , -14.633361 , -0.45968673
-2.6048915 , -14.671668 , 0.91937345
-4.0222588 , -14.480132 , -0.2681506
-3.7924154 , -15.361198 , 0.4213795
-1.532289 , -15.897499 , 0.842759
1.8770541 , -13.445837 , 0.6512229
6.8569937 , -10.036493 , -0.30645782
6.6271505 , -13.599066 , -1.9153614
4.4819455 , -16.893488 , -3.6391866
4.4819455 , -13.982138 , -2.7964275
2.528277 , -12.871228 , -1.5705963
2.0685902 , -12.105083 , -0.11492168
1.6472107 , -10.879252 , 1.9536686
-1.4173675 , -9.5385 , -3.5625722
-4.2904096 , -7.8146744 , 0.30645782
-4.6351743 , -7.469909 , -1.6089035
-3.7541082 , -7.201759 , -2.719813
0.19153613 , -4.596867 , -2.183512
1.1109096 , -3.2561142 , -1.2641385
1.8004397 , -2.4133554 , -0.9959879
2.566584 , -1.3024458 , -1.1875241
2.2218192 , -2.1068976 , 0.11492168
1.532289 , -2.4516625 , 1.340753
0.6512229 , -2.3750482 , 3.064578
1.9153614 , -5.4779334 , 8.580819
4.55856 , -11.951855 , 13.9438305
5.7843914 , -19.76653 , 16.127342
-0.038307227 , -19.804836 , 11.60709
-0.8810662 , -7.3166804 , 9.576807
0.80445176 , -3.2561142 , 8.504205
0.8810662 , -6.5505357 , 6.588843
-2.030283 , -12.181698 , 8.542512
0.61291564 , -19.804836 , 3.86903
7.240066 , -14.939818 , -5.133168
8.350976 , -5.592855 , -6.205771
10.266336 , -0.076614454 , -0.19153613
-2.0685902 , -7.431602 , -5.0182467
-1.5705963 , -9.232041 , -7.1251445
-2.4516625 , -11.9135475 , -1.9919758
-2.0685902 , -13.9438305 , -2.6431987
-0.38307226 , -12.832921 , -2.873042
0.34476504 , -10.534488 , -2.2601264
1.340753 , -8.925584 , 0.91937345
0.4213795 , -8.6574335 , 1.2258313
-0.15322891 , -8.848969 , 0.7661445
0.4213795 , -9.385271 , 1.8004397
0.4213795 , -8.504205 , 2.6048915
0.7278373 , -7.0485296 , 0.61291564
1.1109096 , -6.244078 , -3.5625722
1.4556746 , -6.0142345 , -5.66947
0.61291564 , -9.500193 , -2.3750482
-1.7621324 , -11.530476 , 0.11492168
-3.1411927 , -11.951855 , 2.7581203
-0.45968673 , -12.5264635 , 1.5705963
1.532289 , -11.530476 , 0.7661445
-2.0685902 , -12.181698 , -2.1068976
-1.532289 , -14.633361 , -3.0262709
-1.0726024 , -14.824897 , -1.5705963
-4.3287168 , -13.752295 , 0.6895301
-4.3287168 , -14.978126 , 0.49799395
-2.336741 , -15.05474 , 0.11492168
-0.6512229 , -12.449849 , 0.30645782
4.711789 , -11.33894 , 0.22984336
5.3247046 , -13.867216 , -2.528277
4.060566 , -16.587029 , -4.405331
4.7500963 , -18.08101 , -2.2601264
4.8267107 , -13.790602 , 0.22984336
3.7541082 , -12.641385 , -0.7661445
2.2984335 , -11.33894 , -3.1028855
0.38307226 , -10.726024 , -6.0525417
-5.592855 , -8.542512 , 4.060566
-4.213795 , -7.5848308 , 1.0726024
-2.528277 , -7.469909 , -3.6008794
-0.34476504 , -4.8267107 , -2.1068976
1.0342951 , -3.1028855 , -2.719813
1.4173675 , -2.3750482 , -1.8387469
2.2601264 , -1.6472107 , -1.2641385
1.3024458 , -1.7621324 , -0.038307227
0.5363012 , -1.8770541 , 1.6089035
0.0 , -1.7621324 , 3.4093432
0.45968673 , -2.6048915 , 6.2823853
4.3287168 , -13.330915 , 13.445837
4.55856 , -19.804836 , 12.143391
-2.6431987 , -19.804836 , 11.645397
-2.9496565 , -15.437813 , 10.6877165
2.2984335 , -6.205771 , 7.5082164
3.4093432 , -9.346964 , 6.090849
-0.11492168 , -12.449849 , 8.121132
1.9153614 , -19.804836 , 4.55856
7.6231384 , -10.342952 , -6.129156
6.4739213 , -1.1109096 , -4.903325
7.0485296 , -1.340753 , 0.5746084
-2.7964275 , -8.121132 , -6.090849
-0.038307227 , -10.151415 , -7.469909
-0.80445176 , -11.760319 , -2.834735
-3.6391866 , -12.641385 , -1.1875241
-0.2681506 , -11.760319 , -1.4939818
0.5746084 , -11.645397 , -0.6895301
1.4556746 , -9.5385 , -1.1492168
1.8387469 , -7.929596 , -1.3024458
0.15322891 , -9.346964 , 1.0342951
-1.8770541 , -10.113108 , 0.91937345
-2.719813 , -10.381259 , 1.1109096
-0.22984336 , -8.504205 , 2.719813
0.7661445 , -7.3549876 , 3.2561142
1.4556746 , -6.3206925 , 0.7278373
1.6089035 , -6.090849 , -3.3327289
1.4556746 , -9.193734 , -3.2561142
0.61291564 , -11.032481 , -1.532289
-1.9153614 , -11.18571 , 0.5746084
-4.0222588 , -10.534488 , 2.4133554
-0.8810662 , -11.760319 , -0.038307227
1.4556746 , -11.722012 , -0.91937345
1.6089035 , -12.143391 , -1.8387469
0.7278373 , -12.334928 , -2.183512
-1.532289 , -15.1696615 , -1.5705963
-3.217807 , -14.978126 , -0.5363012
-4.55856 , -13.67568 , -0.38307226
-1.5705963 , -17.046717 , -1.1875241
0.7278373 , -14.250289 , 1.340753
2.2601264 , -11.33894 , 2.183512
3.6391866 , -10.189722 , 0.91937345
4.4819455 , -11.9135475 , -3.5625722
2.834735 , -13.828909 , -4.060566
3.715801 , -15.820885 , -1.7621324
4.7500963 , -14.671668 , -0.22984336
2.2601264 , -11.415554 , -0.2681506
2.566584 , -10.764331 , -2.4133554
1.1875241 , -11.109096 , -5.9759274
-2.9113493 , -9.730036 , 0.49799395
-3.0262709 , -8.6574335 , -0.45968673
-2.2984335 , -7.6614456 , -2.4899697
-0.9959879 , -6.4739213 , -2.719813
1.1109096 , -3.9839516 , -1.3024458
1.685518 , -2.7581203 , -1.0726024
1.8770541 , -1.6472107 , -0.80445176
1.6089035 , -1.8004397 , -0.38307226
0.7278373 , -2.183512 , 2.2601264
0.61291564 , -2.1068976 , 4.1371803
0.842759 , -2.9113493 , 6.8186865
2.4516625 , -6.3589997 , 10.266336
5.363012 , -19.804836 , 13.560759
-0.11492168 , -19.34515 , 11.224017
-1.8770541 , -15.399506 , 8.42759
0.9959879 , -5.861006 , 7.699753
3.6008794 , -6.895301 , 5.631162
2.7581203 , -9.844957 , 6.205771
0.80445176 , -13.560759 , 9.768343
5.746084 , -14.097059 , -0.8810662
3.1411927 , -6.6271505 , -2.183512
5.8226986 , -5.746084 , -1.4173675
3.9073372 , -5.631162 , 2.681506
-1.5705963 , -8.772355 , -6.9719152
0.038307227 , -9.346964 , -5.056554
-0.45968673 , -10.342952 , -1.6089035
-1.6089035 , -11.18571 , -1.6472107
0.2681506 , -11.492168 , -2.030283
1.2258313 , -10.419566 , -1.2258313
1.3024458 , -9.11712 , -1.1492168
0.49799395 , -10.151415 , 0.2681506
-1.0726024 , -10.611102 , 0.80445176
-1.532289 , -9.615114 , 1.2641385
-0.61291564 , -8.312668 , 1.1109096
0.9959879 , -7.3166804 , 2.9113493
1.3024458 , -7.240066 , 0.9959879
1.5705963 , -7.6231384 , -3.1028855
1.6472107 , -8.734048 , -4.5202527
0.34476504 , -9.998186 , -0.8810662
-2.6431987 , -10.036493 , 1.4556746
-4.1371803 , -10.879252 , 2.681506
-3.2561142 , -10.764331 , 1.340753
2.9113493 , -11.415554 , -2.6048915
3.0262709 , -11.951855 , -1.5705963
-0.80445176 , -11.492168 , -0.38307226
-1.532289 , -14.824897 , -1.3790601
-1.7238252 , -15.093047 , -1.0726024
-3.2944214 , -13.254301 , 0.34476504
-4.4436383 , -12.871228 , 0.9576807
-1.3790601 , -16.050728 , -0.49799395
0.7278373 , -13.177686 , 0.7278373
2.681506 , -10.419566 , 0.842759
4.4819455 , -9.078813 , -0.076614454
3.2561142 , -15.246277 , -4.0222588
3.1411927 , -16.931795 , -2.873042
5.0182467 , -16.318878 , -1.2641385
4.213795 , -13.369223 , 0.19153613
2.4133554 , -11.492168 , -1.1109096
1.1109096 , -11.224017 , -3.1411927
-1.2258313 , -10.228029 , -4.6351743
-3.9456444 , -7.431602 , 1.2641385
-2.7581203 , -6.2823853 , -1.9536686
-2.1068976 , -5.9759274 , -2.9113493
-1.0342951 , -5.401319 , -1.4556746
0.5363012 , -3.4093432 , -1.532289
1.0726024 , -2.834735 , -1.1109096
1.5705963 , -2.7581203 , -0.6512229
1.8387469 , -2.834735 , 0.22984336
1.4173675 , -2.681506 , 2.6048915
0.9576807 , -3.2944214 , 4.711789
1.8387469 , -5.3247046 , 7.431602
3.5625722 , -10.266336 , 10.572795
2.030283 , -19.804836 , 12.066776
-2.528277 , -17.621325 , 9.461885
-2.2984335 , -10.726024 , 8.963891
0.61291564 , -6.5505357 , 6.2823853
1.3024458 , -10.036493 , 5.7843914
-1.0342951 , -14.403518 , 8.925584
-2.0685902 , -18.847157 , 7.776367
5.439626 , -8.121132 , -6.933608
8.159439 , -1.685518 , -4.4819455
7.73806 , -2.7964275 , 3.1028855
-0.30645782 , -5.3247046 , 2.030283
-0.2681506 , -8.963891 , -6.167464
-0.2681506 , -10.381259 , -2.030283
-1.8387469 , -10.994174 , -1.0726024
-2.6431987 , -12.29662 , -2.1068976
-0.49799395 , -10.457873 , -1.340753
0.842759 , -9.308656 , -2.4516625
1.4939818 , -9.576807 , -1.8387469
-0.5363012 , -10.228029 , 1.3790601
-0.8810662 , -10.189722 , 2.1452048
-0.842759 , -9.844957 , 2.1452048
0.11492168 , -8.925584 , 2.183512
1.4939818 , -6.9719152 , 2.1452048
1.532289 , -6.742072 , -1.685518
1.340753 , -7.6231384 , -4.865018
1.3024458 , -8.6574335 , -4.865018
-0.61291564 , -10.457873 , -1.6472107
-2.6048915 , -10.6877165 , 0.80445176
-3.6008794 , -10.572795 , 2.9113493
-2.4516625 , -11.645397 , 2.566584
0.842759 , -12.564771 , -0.30645782
0.19153613 , -12.29662 , -1.5705963
0.4213795 , -13.101071 , -2.6048915
0.61291564 , -12.641385 , -0.22984336
-1.9153614 , -12.679692 , 1.0342951
-3.9456444 , -13.905523 , 0.9959879
-3.6391866 , -15.47612 , -0.7278373
0.038307227 , -13.982138 , -0.61291564
2.336741 , -9.461885 , 0.6895301
4.7884035 , -7.1251445 , 1.9536686
5.631162 , -9.002198 , 0.8810662
2.6048915 , -17.314867 , -3.217807
3.6774938 , -16.548721 , -0.8810662
2.9113493 , -13.67568 , 0.45968673
2.6048915 , -12.334928 , -1.4939818
1.8004397 , -11.147403 , -4.405331
-0.6895301 , -10.036493 , -2.3750482
-2.183512 , -9.385271 , 0.842759
-0.7278373 , -6.8569937 , -1.340753
-0.5363012 , -6.4739213 , -3.1028855
-0.80445176 , -5.631162 , -1.340753
-0.6512229 , -4.9799395 , -0.076614454
0.5363012 , -2.834735 , -0.9576807
1.1875241 , -2.3750482 , -0.19153613
1.5705963 , -2.336741 , 0.49799395
1.2641385 , -2.566584 , 1.6089035
0.7661445 , -2.6048915 , 5.3247046
1.7621324 , -4.2521024 , 8.0445175
3.8307228 , -8.925584 , 10.381259
2.7964275 , -19.804836 , 12.947843
-2.681506 , -17.889475 , 8.887277
-1.340753 , -9.998186 , 8.619126
0.8810662 , -3.9456444 , 8.197746
2.2984335 , -8.274361 , 5.5162406
-1.4556746 , -12.449849 , 9.423578
-3.9456444 , -17.506403 , 9.615114
3.7541082 , -19.804836 , 3.3327289
6.5505357 , -2.4133554 , -4.903325
7.8146744 , -1.5705963 , 0.7278373
1.2258313 , -3.9839516 , 1.7238252
-3.064578 , -7.929596 , -5.5162406
-1.4556746 , -10.91756 , -2.9113493
-1.8770541 , -11.722012 , -1.532289
-1.4173675 , -12.411542 , -2.030283
-0.7278373 , -10.419566 , -1.532289
0.7661445 , -10.0748005 , -1.3024458
0.5363012 , -9.80665 , 0.038307227
-0.7278373 , -9.461885 , 1.685518
-0.7278373 , -9.308656 , 1.9919758
0.5363012 , -8.159439 , 2.9496565
0.9959879 , -7.6614456 , 2.7581203
1.5705963 , -6.9719152 , 0.15322891
1.7621324 , -6.8569937 , -3.5625722
1.8387469 , -8.312668 , -4.1371803
0.6512229 , -9.768343 , -2.0685902
-2.0685902 , -10.840945 , 0.34476504
-3.5242648 , -11.33894 , 2.183512
-0.4213795 , -11.951855 , 0.34476504
1.9153614 , -12.258312 , -0.38307226
0.6895301 , -11.9135475 , -0.076614454
-1.8387469 , -11.87524 , -1.1109096
-0.11492168 , -15.74427 , -1.8770541
5.66947 , -11.568783 , -3.5242648
3.6391866 , -15.7825775 , -3.86903
4.175488 , -16.357185 , -1.685518
4.5202527 , -14.671668 , 0.22984336
2.7964275 , -12.756307 , -0.34476504
2.2601264 , -11.836933 , -0.91937345
0.9576807 , -10.534488 , -3.4093432
-1.5705963 , -9.423578 , -4.673482
-3.0262709 , -7.929596 , 0.038307227
-2.183512 , -7.086837 , -2.0685902
-1.1109096 , -5.8226986 , -1.9153614
0.9959879 , -3.4476504 , -1.6472107
1.3790601 , -2.4133554 , -1.4939818
1.8770541 , -1.4173675 , -1.2258313
2.0685902 , -1.4556746 , -0.7661445
0.9576807 , -1.8004397 , 2.7581203
0.45968673 , -1.685518 , 4.903325
2.2984335 , -7.431602 , 11.109096
4.8267107 , -16.548721 , 14.671668
4.060566 , -19.804836 , 14.097059
-1.7621324 , -12.334928 , 8.082825
0.0 , -6.6654577 , 8.580819
3.5242648 , -7.0102224 , 6.742072
4.55856 , -9.385271 , 6.588843
1.1109096 , -19.804836 , 7.086837
4.3287168 , -16.357185 , -1.685518
1.0342951 , -4.903325 , -4.673482
6.090849 , -2.7581203 , -3.9456444
-2.4516625 , -6.0142345 , -1.9536686
0.8810662 , -9.883265 , -3.715801
-0.49799395 , -11.262324 , -1.1492168
-2.6048915 , -12.832921 , -1.9153614
-2.566584 , -14.709975 , -2.566584
1.1875241 , -9.193734 , -1.4173675
2.183512 , -7.5082164 , 0.91937345
0.5363012 , -8.734048 , 1.4556746
-1.1109096 , -10.496181 , 1.6089035
-1.8004397 , -10.764331 , 0.7661445
0.15322891 , -7.1634517 , 3.217807
1.2641385 , -6.205771 , 2.681506
2.1068976 , -6.435614 , -0.91937345
2.6431987 , -8.121132 , -5.056554
1.9153614 , -10.304645 , -2.2984335
-0.7661445 , -9.80665 , 0.91937345
-3.86903 , -10.419566 , 3.5242648
-2.3750482 , -10.496181 , -0.038307227
1.6472107 , -11.224017 , -3.8307228
4.3287168 , -11.9135475 , -2.7964275
1.685518 , -11.683704 , 0.038307227
-2.030283 , -13.560759 , -0.5746084
-0.7278373 , -14.748282 , -1.0342951
-0.842759 , -13.254301 , 0.38307226
-2.4133554 , -12.909535 , 1.6472107
-2.873042 , -13.982138 , 2.3750482
-1.1875241 , -14.5567465 , 0.49799395
1.4556746 , -12.334928 , -0.038307227
4.5202527 , -8.963891 , -0.9576807
2.9113493 , -15.20797 , -4.4436383
3.5625722 , -17.085024 , -1.8004397
4.711789 , -16.242264 , 1.340753
3.6008794 , -14.020445 , 2.2984335
3.217807 , -12.909535 , 0.38307226
1.7621324 , -11.530476 , -4.4436383
-0.8810662 , -10.6877165 , -9.11712
-4.7884035 , -7.8529816 , 1.8004397
-3.064578 , -6.244078 , 0.2681506
-1.1492168 , -5.631162 , -2.6431987
0.038307227 , -4.596867 , -2.030283
1.4556746 , -1.7621324 , -1.1492168
2.2601264 , -1.4173675 , -1.8770541
2.2218192 , -1.8004397 , -1.2641385
1.8770541 , -2.030283 , -0.038307227
0.7661445 , -2.1068976 , 3.2944214
1.2641385 , -3.7541082 , 5.4779334
1.8387469 , -9.078813 , 10.0748005
1.2258313 , -19.804836 , 13.330915
-2.719813 , -17.621325 , 11.070788
-1.2641385 , -11.032481 , 9.5385
0.49799395 , -8.082825 , 7.201759
1.532289 , -10.879252 , 5.66947
-0.61291564 , -13.101071 , 7.6614456
2.873042 , -18.195932 , 4.9416323
4.6351743 , -17.506403 , -0.30645782
4.9416323 , -3.064578 , -5.133168
4.2521024 , -2.873042 , -0.7278373
1.1109096 , -6.0142345 , -2.336741
0.6895301 , -10.534488 , -2.1068976
0.038307227 , -11.722012 , -1.8387469
-1.3024458 , -12.028469 , -2.566584
-1.8770541 , -12.871228 , -2.336741
0.038307227 , -9.921572 , 0.4213795
0.80445176 , -9.11712 , 1.2258313
0.038307227 , -8.350976 , 0.5746084
-0.9576807 , -9.11712 , 0.30645782
-0.5363012 , -9.461885 , 0.9959879
0.49799395 , -8.619126 , 2.2218192
1.1109096 , -7.3166804 , 2.030283
1.2258313 , -6.397307 , -0.6895301
0.5363012 , -8.350976 , -3.1411927
0.38307226 , -9.270349 , -2.873042
-0.34476504 , -10.304645 , -1.8770541
-1.7621324 , -11.18571 , 0.61291564
-1.9153614 , -9.959879 , 1.6472107
0.45968673 , -10.764331 , 0.34476504
1.1492168 , -10.228029 , 0.45968673
-1.3024458 , -12.564771 , -1.6089035
-1.4173675 , -13.369223 , -1.8770541
-1.0726024 , -13.177686 , -1.2641385
-0.45968673 , -13.330915 , -0.30645782
-1.8004397 , -13.101071 , 1.4939818
-0.9576807 , -14.326903 , 1.4556746
0.38307226 , -13.713987 , 1.6089035
1.4173675 , -11.798626 , 2.7581203
2.9879637 , -10.0748005 , 0.5363012
3.064578 , -14.365211 , -3.1794999
4.2521024 , -17.468096 , -4.9799395
7.6231384 , -17.889475 , -3.6774938
3.4859576 , -13.330915 , 3.8307228
3.6774938 , -12.909535 , 2.9879637
3.9839516 , -11.9135475 , -1.8387469
-2.719813 , -11.33894 , -1.532289
-5.2863975 , -10.955867 , 1.532289
-4.175488 , -9.653421 , 0.2681506
-2.2218192 , -8.465898 , -2.681506
0.45968673 , -3.7924154 , -0.9959879
1.340753 , -2.2218192 , -0.8810662
1.8004397 , -1.3790601 , -0.9576807
2.336741 , -0.6512229 , -0.9576807
2.2984335 , -1.532289 , 0.19153613
1.6089035 , -1.9536686 , 1.3790601
0.9576807 , -2.566584 , 2.834735
0.4213795 , -3.371036 , 4.5202527
2.9879637 , -10.381259 , 13.713987
5.746084 , -17.889475 , 15.591042
3.4859576 , -19.421764 , 13.867216
0.2681506 , -11.760319 , 7.5848308
2.2601264 , -5.861006 , 5.592855
3.3327289 , -4.405331 , 4.8267107
2.7581203 , -6.742072 , 3.7541082
1.8387469 , -10.036493 , 9.423578
1.8770541 , -15.974113 , 8.887277
6.5122285 , -17.736246 , 4.405331
4.098873 , -12.028469 , -0.19153613
6.6654577 , -4.4436383 , -1.1109096
3.6008794 , -5.66947 , 6.129156
-6.703765 , -10.994174 , 4.3287168
1.6089035 , -9.730036 , -3.8307228
1.6472107 , -9.500193 , -1.9536686
0.4213795 , -10.840945 , -0.15322891
0.15322891 , -12.066776 , -0.6512229
0.8810662 , -9.768343 , -1.3790601
1.685518 , -8.695741 , 0.038307227
2.2601264 , -8.580819 , 0.9576807
1.9536686 , -8.504205 , 1.3790601
-0.7661445 , -9.11712 , 1.0342951
-1.6472107 , -10.228029 , 0.61291564
-1.7238252 , -10.764331 , 0.2681506
-1.2641385 , -9.423578 , -0.11492168
1.2258313 , -6.397307 , 0.38307226
1.6472107 , -5.9759274 , 0.6895301
0.9576807 , -6.0142345 , 0.80445176
0.0 , -7.0102224 , 0.6512229
-1.1109096 , -9.193734 , 0.49799395
-1.685518 , -8.772355 , 0.45968673
-1.0342951 , -8.465898 , 0.038307227
0.15322891 , -9.040505 , -0.4213795
-0.6895301 , -9.423578 , -0.30645782
-1.685518 , -9.80665 , -0.4213795
-1.9153614 , -10.764331 , -0.49799395
0.45968673 , -13.9438305 , 1.6472107
1.9153614 , -13.867216 , 4.903325
1.4556746 , -13.828909 , 6.742072
-0.91937345 , -17.27656 , 3.9073372
-3.1794999 , -19.804836 , -0.49799395
1.2641385 , -14.978126 , -1.9153614
3.6391866 , -10.955867 , -1.3024458
4.2521024 , -12.373235 , -2.566584
5.861006 , -16.548721 , 1.340753
4.098873 , -16.472107 , 4.596867
3.715801 , -16.127342 , 4.7500963
3.4859576 , -10.649409 , -5.8226986
1.8004397 , -11.60709 , -5.8226986
-2.6431987 , -13.062764 , -4.55856
-5.2480903 , -12.449849 , -0.15322891
-1.8387469 , -7.3549876 , -4.673482
-0.19153613 , -4.7884035 , -3.7541082
1.0342951 , -3.1028855 , -2.528277
1.9153614 , -1.2258313 , -1.9153614
2.719813 , -0.45968673 , -2.1068976
1.8770541 , -0.45968673 , -0.4213795
1.1492168 , 0.19153613 , 2.1452048
1.1109096 , 0.11492168 , 4.55856
3.217807 , -7.2783732 , 7.699753
5.93762 , -15.935806 , 13.215993
5.899313 , -19.804836 , 17.96609
-1.340753 , -9.270349 , 8.925584
0.19153613 , -3.9073372 , 7.5465236
1.7238252 , -7.967903 , 6.3206925
-0.6895301 , -13.522451 , 6.6654577
7.699753 , -19.76653 , 2.030283
3.371036 , -10.879252 , -6.0525417
5.707777 , -2.1452048 , -6.9719152
7.8912888 , -1.4939818 , 1.9153614
0.076614454 , -9.270349 , -7.6614456
0.45968673 , -10.151415 , -4.7500963
-1.3790601 , -11.683704 , -3.371036
-2.873042 , -14.326903 , -1.685518
-1.6089035 , -13.330915 , 0.45968673
0.80445176 , -9.155427 , 0.6512229
1.9153614 , -7.3549876 , 0.076614454
0.91937345 , -8.312668 , -0.8810662
-0.9959879 , -9.155427 , -0.19153613
-2.1452048 , -10.151415 , 1.4556746
-1.1875241 , -10.649409 , 2.6048915
1.340753 , -7.3166804 , 1.4939818
2.0685902 , -6.090849 , -2.719813
1.8387469 , -5.631162 , -4.7500963
1.6089035 , -6.205771 , -4.9416323
-1.2641385 , -11.9135475 , -1.6089035
-2.9496565 , -13.062764 , 0.9576807
-3.1794999 , -12.181698 , 3.2944214
0.842759 , -11.453861 , 2.4516625
0.80445176 , -11.453861 , -0.9959879
-0.15322891 , -12.832921 , -2.681506
-0.5363012 , -14.211981 , -2.4899697
-1.1109096 , -14.518439 , 0.15322891
-1.8004397 , -14.5567465 , 1.5705963
-2.6431987 , -14.939818 , 1.5705963
-1.9536686 , -15.399506 , 0.19153613
2.9113493 , -10.189722 , -0.34476504
5.861006 , -10.534488 , 0.038307227
6.205771 , -12.29662 , -2.7964275
4.596867 , -15.935806 , -3.6008794
4.367024 , -13.484144 , 0.19153613
3.7541082 , -12.832921 , 1.0726024
4.4436383 , -11.568783 , 0.076614454
0.34476504 , -10.6877165 , -3.2944214
-2.9879637 , -10.994174 , -2.2218192
-4.7500963 , -10.113108 , -0.19153613
-4.213795 , -9.040505 , -1.0726024
-0.49799395 , -5.746084 , -1.3024458
0.45968673 , -4.213795 , -1.8004397
1.3790601 , -2.7964275 , -1.685518
1.8770541 , -1.4173675 , -1.340753
1.8387469 , -1.1875241 , -0.45968673
0.8810662 , -1.4173675 , 0.9959879
0.49799395 , -1.532289 , 2.9113493
0.45968673 , -2.183512 , 4.7884035
2.681506 , -11.33894 , 13.637373
5.133168 , -19.651608 , 17.161638
1.6089035 , -19.804836 , 12.679692
-0.7661445 , -8.121132 , 7.8912888
1.8387469 , -5.707777 , 5.8226986
4.3287168 , -8.236053 , 4.1371803
3.4859576 , -10.994174 , 4.711789
2.566584 , -18.119318 , 8.00621
6.0525417 , -17.506403 , 2.566584
1.4173675 , -8.121132 , -5.861006
4.2904096 , -2.873042 , -6.244078
1.340753 , -6.5505357 , -1.2258313
-0.038307227 , -9.500193 , -5.66947
0.45968673 , -10.879252 , -4.2521024
-1.0342951 , -11.377247 , -2.7964275
-0.61291564 , -11.33894 , 0.11492168
-0.2681506 , -10.572795 , 0.0
0.34476504 , -9.80665 , -1.8770541
-0.19153613 , -8.619126 , -2.2984335
-0.61291564 , -8.963891 , -0.11492168
-1.685518 , -10.228029 , 0.11492168
-2.183512 , -10.649409 , 1.685518
0.0 , -7.8912888 , 2.4133554
1.1875241 , -6.895301 , 1.3790601
1.9919758 , -7.6231384 , -2.4133554
1.9536686 , -8.121132 , -3.9073372
1.685518 , -9.998186 , -2.719813
-0.4213795 , -10.802638 , -1.0726024
-3.4093432 , -10.840945 , 0.80445176
-1.2258313 , -12.105083 , 0.6895301
1.2258313 , -11.722012 , 0.6512229
0.19153613 , -11.224017 , -0.38307226
-2.183512 , -12.603078 , -1.9536686
-0.5746084 , -13.445837 , 0.34476504
1.340753 , -12.29662 , 0.8810662
0.7661445 , -13.752295 , 0.11492168
-1.340753 , -14.173674 , -0.30645782
1.1492168 , -13.484144 , 1.3024458
3.2944214 , -11.798626 , 1.9536686
4.060566 , -10.189722 , 1.7238252
4.7884035 , -10.879252 , -0.22984336
7.929596 , -15.47612 , -3.8307228
7.5848308 , -15.7825775 , -0.842759
4.673482 , -13.139379 , 1.8770541
3.1411927 , -9.691729 , -0.9959879
2.6048915 , -9.385271 , 0.076614454
1.340753 , -10.572795 , -3.6008794
-2.9496565 , -10.764331 , -2.2218192
-2.566584 , -7.3166804 , 0.80445176
-0.5363012 , -6.2823853 , -0.80445176
0.61291564 , -5.363012 , -0.9959879
0.842759 , -4.405331 , -0.45968673
1.9536686 , -2.3750482 , 1.6089035
2.2601264 , -2.681506 , 1.3790601
1.9153614 , -2.873042 , 1.3790601
0.8810662 , -3.1411927 , 0.8810662
-0.6895301 , -5.094861 , 3.1028855
-0.15322891 , -5.4779334 , 7.0102224
0.4213795 , -7.5848308 , 11.33894
-1.8770541 , -15.974113 , 12.105083
-5.4779334 , -17.659632 , 8.887277
-5.592855 , -15.322891 , 5.9759274
-1.0726024 , -10.91756 , 5.66947
2.7581203 , -9.844957 , 5.7843914
0.9576807 , -11.453861 , 6.3589997
-0.842759 , -15.05474 , 6.244078
2.1452048 , -19.191921 , 5.707777
4.2904096 , -4.2521024 , -5.5162406
4.175488 , -2.0685902 , -6.7803793
5.0182467 , -4.6351743 , -0.2681506
1.4939818 , -6.7803793 , 3.1794999
-3.2561142 , -11.9135475 , -2.719813
1.1109096 , -10.036493 , -1.0726024
0.842759 , -8.0445175 , -0.80445176
-1.340753 , -11.377247 , -1.8004397
-1.685518 , -12.181698 , -2.6048915
0.4213795 , -11.18571 , -2.2984335
0.8810662 , -9.078813 , -0.842759
0.842759 , -9.232041 , 2.6431987
0.8810662 , -9.270349 , 4.0222588
0.80445176 , -9.423578 , 3.6008794
0.5363012 , -9.11712 , 3.4093432
-0.49799395 , -8.082825 , 0.61291564
-0.19153613 , -7.967903 , -1.4173675
0.6895301 , -7.393295 , -3.1411927
1.2258313 , -8.312668 , -3.9073372
1.1875241 , -10.534488 , -2.183512
-0.8810662 , -10.649409 , 0.22984336
-3.1028855 , -11.760319 , 2.4516625
1.1109096 , -13.330915 , -0.49799395
2.1068976 , -12.028469 , -1.8387469
1.340753 , -11.109096 , -1.4939818
0.38307226 , -12.756307 , -0.49799395
-3.3327289 , -14.326903 , 0.5363012
-4.3287168 , -13.369223 , -1.0342951
-3.6391866 , -12.98615 , -1.4556746
-2.0685902 , -14.365211 , -0.038307227
1.9536686 , -11.262324 , 1.2641385
3.5242648 , -11.33894 , 0.19153613
4.213795 , -12.29662 , -1.8770541
2.7581203 , -14.097059 , -4.175488
4.596867 , -16.127342 , -2.3750482
4.7884035 , -13.369223 , 0.0
4.213795 , -11.377247 , 1.0726024
2.873042 , -10.457873 , -1.1109096
1.2258313 , -10.879252 , -6.0142345
-2.6431987 , -10.304645 , -3.3327289
-4.3287168 , -9.461885 , 3.0262709
-1.1875241 , -7.3166804 , -2.4899697
-0.45968673 , -6.205771 , -2.2984335
0.0 , -4.903325 , -2.2218192
0.7661445 , -3.5625722 , -2.183512
1.6472107 , -1.8770541 , -0.80445176
1.8004397 , -1.6089035 , 0.0
1.340753 , -1.7621324 , 1.4173675
1.0342951 , -2.030283 , 3.5242648
2.719813 , -4.6351743 , 9.308656
3.9073372 , -10.189722 , 12.066776
5.5162406 , -17.96609 , 13.139379
-0.5746084 , -15.514427 , 8.42759
-0.34476504 , -10.457873 , 8.121132
1.9919758 , -8.887277 , 8.0445175
3.8307228 , -10.0748005 , 5.746084
-0.038307227 , -14.211981 , 13.254301
-0.61291564 , -17.621325 , 5.133168
3.217807 , -10.457873 , -4.4819455
3.9839516 , -2.873042 , -6.895301
3.1028855 , -4.8267107 , 4.903325
-5.0182467 , -7.967903 , -1.9536686
-1.9536686 , -9.921572 , -7.431602
0.15322891 , -10.381259 , -3.6008794
-2.2984335 , -13.215993 , -1.1109096
-1.1109096 , -13.101071 , -1.9153614
0.5746084 , -10.649409 , -1.6089035
3.064578 , -6.6271505 , -1.4173675
2.336741 , -7.8529816 , -0.49799395
0.49799395 , -10.0748005 , 0.9959879
-0.9576807 , -11.951855 , 1.5705963
-1.1109096 , -9.500193 , 3.1411927
-0.15322891 , -8.00621 , 4.175488
0.91937345 , -7.3549876 , 4.175488
1.9919758 , -7.0485296 , 2.2601264
2.2601264 , -7.469909 , -5.9759274
2.3750482 , -8.236053 , -7.1251445
1.6472107 , -9.691729 , -4.9416323
-0.34476504 , -10.6877165 , -1.4173675
-3.371036 , -11.836933 , 4.5202527
-1.4556746 , -13.062764 , 4.596867
1.6089035 , -12.909535 , 1.4173675
-0.45968673 , -11.18571 , -2.2601264
-1.9536686 , -12.832921 , -2.336741
-2.7581203 , -15.399506 , -1.3790601
-2.528277 , -15.7825775 , 0.5363012
-2.9496565 , -13.982138 , 1.0342951
-1.9536686 , -14.863204 , 0.22984336
-0.076614454 , -12.756307 , 0.15322891
2.528277 , -10.151415 , -0.11492168
6.090849 , -12.220005 , -3.1028855
4.596867 , -16.74026 , -4.2904096
4.865018 , -17.238253 , -2.4899697
5.4779334 , -14.748282 , -0.34476504
3.7924154 , -12.066776 , 1.6472107
2.719813 , -11.300632 , -0.076614454
0.7661445 , -11.492168 , -5.5162406
-4.2521024 , -8.925584 , 1.0342951
-3.7541082 , -8.350976 , -0.19153613
-2.183512 , -7.2783732 , -1.6472107
-1.1109096 , -6.129156 , -1.7621324
0.19153613 , -4.175488 , -1.0342951
1.2258313 , -2.4516625 , -0.80445176
1.9536686 , -1.4556746 , -0.5746084
2.566584 , -0.9576807 , 0.0
1.8387469 , -1.0726024 , 2.9113493
1.6089035 , -2.0685902 , 4.9416323
2.2984335 , -4.405331 , 8.236053
3.064578 , -9.11712 , 12.334928
4.9416323 , -19.498379 , 11.262324
1.1492168 , -15.284584 , 9.155427
-0.30645782 , -11.070788 , 8.159439
3.371036 , -7.240066 , 6.895301
4.405331 , -9.461885 , 4.55856
3.2561142 , -11.492168 , 6.742072
4.55856 , -14.365211 , 5.2863975
3.064578 , -8.848969 , 0.5363012
3.4093432 , -6.7803793 , 0.5746084
1.8004397 , -6.205771 , 2.4133554
-2.4899697 , -6.8569937 , 1.5705963
-0.11492168 , -9.078813 , -2.7964275
-0.6895301 , -11.18571 , -2.183512
-1.8004397 , -11.722012 , -1.2258313
-2.4516625 , -12.832921 , -2.336741
-0.11492168 , -10.879252 , -2.6431987
1.6089035 , -9.385271 , -1.7238252
2.834735 , -9.11712 , -0.6512229
1.1875241 , -9.844957 , 2.336741
-0.61291564 , -10.649409 , 2.9879637
-0.7661445 , -10.6877165 , 2.9113493
-0.038307227 , -9.500193 , 2.4899697
1.685518 , -6.6271505 , 1.532289
1.4556746 , -6.703765 , 0.91937345
0.8810662 , -7.086837 , -1.0342951
0.34476504 , -8.389283 , -5.0182467
1.3024458 , -10.955867 , -4.060566
0.842759 , -10.534488 , -0.9959879
-1.1109096 , -10.419566 , 2.0685902
-2.528277 , -11.109096 , 5.4779334
0.4213795 , -10.113108 , -0.30645782
4.060566 , -10.802638 , -5.899313
4.098873 , -11.070788 , -5.3247046
-2.183512 , -10.6877165 , -0.15322891
-3.0262709 , -10.726024 , 0.9576807
-1.8004397 , -13.139379 , -0.22984336
-1.3024458 , -13.101071 , -0.9576807
-2.528277 , -12.105083 , -0.45968673
-3.1794999 , -12.641385 , -0.45968673
-1.7238252 , -14.595054 , -0.8810662
-0.11492168 , -13.522451 , -0.19153613
2.2218192 , -10.726024 , 1.1875241
4.903325 , -9.730036 , -0.11492168
5.899313 , -10.955867 , -3.064578
4.213795 , -13.445837 , -3.9073372
2.9496565 , -13.752295 , -0.80445176
2.2218192 , -12.603078 , -0.076614454
2.4899697 , -12.5264635 , 0.7661445
1.340753 , -10.764331 , -0.7278373
-0.6895301 , -10.764331 , -7.201759
-3.5625722 , -10.189722 , -4.9416323
-4.2521024 , -8.734048 , 0.4213795
-0.4213795 , -6.205771 , -0.842759
0.38307226 , -5.5162406 , -1.3790601
1.2258313 , -5.094861 , 0.0
1.8770541 , -3.86903 , 0.8810662
2.030283 , -2.873042 , 0.7661445
1.7621324 , -3.1794999 , 1.0726024
1.5705963 , -3.7924154 , 1.9919758
1.8387469 , -4.673482 , 3.6391866
1.4556746 , -10.036493 , 6.9719152
1.2258313 , -13.752295 , 8.121132
-0.038307227 , -15.322891 , 9.346964
-6.090849 , -10.534488 , 5.899313
-7.1634517 , -10.266336 , 2.7964275
-5.133168 , -11.032481 , 3.1794999
-1.9919758 , -12.449849 , 5.401319
6.0525417 , -18.65562 , 4.865018
8.619126 , -14.403518 , 1.1109096
7.776367 , -5.3247046 , -3.9456444
5.0182467 , -4.711789 , -1.9153614
2.834735 , -3.5242648 , 0.9959879
-3.217807 , -11.147403 , -3.5242648
-2.873042 , -12.947843 , -2.0685902
-2.4899697 , -13.330915 , -0.7661445
-3.4859576 , -13.101071 , -1.4556746
-1.4556746 , -11.951855 , -0.80445176
-0.4213795 , -10.0748005 , -0.2681506
0.38307226 , -8.42759 , 0.38307226
0.7278373 , -8.082825 , 0.15322891
1.0726024 , -8.963891 , 1.2641385
0.9576807 , -9.040505 , 1.0726024
0.45968673 , -9.346964 , 0.6512229
-1.1492168 , -10.0748005 , -0.8810662
-1.7621324 , -9.998186 , -0.9959879
-1.685518 , -10.036493 , -0.38307226
-1.3790601 , -9.844957 , 0.11492168
-1.0726024 , -9.461885 , -0.15322891
-1.1875241 , -9.500193 , -0.5746084
-1.0726024 , -9.691729 , -0.6895301
-0.9959879 , -9.844957 , -0.49799395
-1.8387469 , -10.572795 , 0.80445176
-2.566584 , -10.649409 , 1.2641385
-2.681506 , -10.151415 , 1.5705963
-1.9153614 , -9.730036 , 1.2641385
0.5363012 , -11.760319 , -0.038307227
1.340753 , -12.373235 , -0.22984336
1.6472107 , -12.373235 , 0.5363012
1.4173675 , -13.9438305 , 2.4899697
2.0685902 , -13.905523 , 3.1411927
3.1794999 , -12.909535 , 3.6391866
3.86903 , -11.9135475 , 3.9073372
3.1411927 , -12.679692 , 4.711789
2.7581203 , -12.258312 , 3.1028855
2.2601264 , -10.879252 , 0.15322891
1.340753 , -9.653421 , -1.7621324
-1.2258313 , -8.465898 , -0.80445176
-2.1068976 , -8.00621 , 1.1492168
-1.8004397 , -7.8529816 , 3.1794999
-0.842759 , -8.159439 , 3.2944214
0.8810662 , -7.431602 , 2.6048915
0.9576807 , -6.895301 , 2.4899697
0.5746084 , -6.895301 , 2.3750482
0.038307227 , -7.240066 , 2.183512
0.22984336 , -7.1634517 , 2.1452048
0.6895301 , -7.431602 , 2.4133554
0.91937345 , -7.469909 , 2.834735
0.6895301 , -6.9719152 , 4.2904096
0.5746084 , -7.0102224 , 4.673482
0.5746084 , -7.3166804 , 4.5202527
0.2681506 , -7.967903 , 4.175488
-1.1109096 , -9.11712 , 4.8267107
-1.2641385 , -9.270349 , 5.4779334
-1.340753 , -9.155427 , 5.861006
-1.1875241 , -8.925584 , 6.129156
-0.61291564 , -9.040505 , 6.397307
-0.22984336 , -9.423578 , 5.4779334
0.15322891 , -9.002198 , 4.5202527
-0.038307227 , -7.6231384 , 4.213795
-0.4213795 , -7.1634517 , 3.8307228
-1.1492168 , -7.699753 , 4.098873
-1.4556746 , -9.270349 , 5.554548
0.11492168 , -14.939818 , 6.742072
1.685518 , -18.50239 , 8.465898
2.6431987 , -18.65562 , 6.6271505
1.7621324 , -10.0748005 , 1.1875241
5.592855 , -3.6008794 , -2.9879637
5.4779334 , -3.9839516 , 0.7278373
1.532289 , -6.588843 , 0.842759
-1.6089035 , -9.730036 , -2.4899697
-3.5625722 , -11.300632 , -2.183512
-4.3287168 , -11.798626 , -0.15322891
0.30645782 , -12.29662 , 0.30645782
1.8004397 , -9.576807 , 0.91937345
1.6089035 , -8.810662 , 0.9576807
1.4556746 , -8.542512 , 0.7278373
0.91937345 , -8.695741 , 0.34476504
-0.6895301 , -10.381259 , -1.685518
-1.1492168 , -11.147403 , -2.9113493
-0.45968673 , -9.921572 , 0.076614454
0.038307227 , -9.040505 , 1.6089035
0.8810662 , -8.580819 , 0.45968673
0.6512229 , -8.580819 , -1.1875241
0.19153613 , -8.6574335 , -2.834735
-0.15322891 , -8.6574335 , -3.3327289
0.7278373 , -10.611102 , -0.9959879
0.80445176 , -11.032481 , 0.038307227
-0.15322891 , -10.726024 , 1.340753
-1.4556746 , -10.572795 , 1.8004397
-0.7278373 , -11.683704 , -1.532289
0.11492168 , -12.105083 , -2.719813
0.6512229 , -11.87524 , -2.2984335
0.91937345 , -10.381259 , 0.4213795
0.7278373 , -10.6877165 , 0.9576807
-0.2681506 , -11.683704 , 0.6512229
-1.8004397 , -13.101071 , -0.076614454
-2.2601264 , -14.173674 , -0.34476504
-1.8004397 , -13.905523 , 0.0
-0.9576807 , -11.990162 , 0.4213795
0.91937345 , -10.419566 , 0.5746084
4.55856 , -12.5264635 , 0.2681506
4.711789 , -14.518439 , -0.7278373
3.3327289 , -14.518439 , -2.2218192
1.4556746 , -12.947843 , -2.2984335
1.1109096 , -11.760319 , -2.2601264
0.80445176 , -11.60709 , -4.3287168
-0.6895301 , -11.300632 , -5.401319
-1.7621324 , -9.768343 , 2.528277
-0.5363012 , -9.270349 , 2.528277
0.49799395 , -8.580819 , -0.22984336
1.1109096 , -7.73806 , -2.030283
0.7661445 , -6.4739213 , -1.4939818
0.5363012 , -5.707777 , 0.19153613
0.80445176 , -5.2863975 , 0.19153613
1.0342951 , -5.2863975 , 0.19153613
1.340753 , -4.6351743 , 1.3790601
1.1492168 , -4.1371803 , 2.1452048
1.2641385 , -3.86903 , 3.1794999
1.532289 , -4.405331 , 4.6351743
1.2258313 , -9.998186 , 8.848969
0.9576807 , -13.484144 , 9.653421
0.11492168 , -14.250289 , 10.534488
-0.842759 , -9.844957 , 8.389283
-0.7661445 , -8.619126 , 7.431602
0.15322891 , -8.504205 , 6.435614
1.532289 , -9.5385 , 4.865018
1.532289 , -10.496181 , 6.435614
0.80445176 , -12.181698 , 7.8146744
2.0685902 , -13.790602 , 6.167464
3.5242648 , -12.334928 , 2.873042
2.2984335 , -6.9719152 , -0.5746084
1.6089035 , -6.588843 , 1.532289
-0.38307226 , -7.8912888 , -0.30645782
-0.5746084 , -8.465898 , -3.715801
-0.15322891 , -9.80665 , -2.6431987
-1.4173675 , -11.18571 , -1.2641385
-0.91937345 , -12.066776 , -1.1492168
0.7278373 , -10.611102 , -0.5363012
1.9536686 , -9.730036 , -0.038307227
0.9576807 , -9.232041 , 1.532289
0.11492168 , -9.5385 , 1.1875241
-1.1109096 , -10.036493 , -1.3024458
-1.685518 , -10.113108 , -0.38307226
1.4556746 , -8.734048 , 0.7661445
2.2218192 , -8.504205 , 1.340753
1.9153614 , -8.6574335 , 1.3024458
-0.038307227 , -9.002198 , -2.1452048
0.30645782 , -9.653421 , -4.367024
0.8810662 , -10.113108 , -4.060566
0.7278373 , -10.266336 , -2.1068976
-0.5363012 , -10.611102 , 2.336741
-0.7278373 , -10.151415 , 2.3750482
-0.038307227 , -9.576807 , -0.2681506
1.0726024 , -9.576807 , -1.6089035
-0.842759 , -9.921572 , -0.5363012
-2.3750482 , -11.530476 , -0.91937345
-2.2218192 , -12.98615 , -1.4939818
0.34476504 , -12.449849 , -1.2641385
1.0342951 , -11.798626 , -1.2641385
0.5746084 , -11.070788 , -0.5363012
0.19153613 , -12.564771 , -0.15322891
1.7621324 , -13.254301 , 1.9919758
1.9153614 , -12.066776 , 2.4899697
2.2601264 , -11.453861 , 1.3790601
3.1794999 , -10.955867 , -0.038307227
6.895301 , -12.5264635 , -3.2944214
7.6614456 , -14.441825 , -3.217807
5.861006 , -13.752295 , -2.030283
3.2561142 , -11.377247 , -0.34476504
2.336741 , -10.955867 , -0.038307227
1.9919758 , -10.879252 , -2.4133554
0.5363012 , -9.730036 , -0.9959879
-2.3750482 , -8.197746 , 0.49799395
-1.4939818 , -6.9719152 , 1.532289
-0.6895301 , -6.588843 , 0.2681506
-0.30645782 , -6.435614 , 0.2681506
1.3024458 , -3.9839516 , 1.7238252
2.0685902 , -3.6391866 , 2.3750482
2.336741 , -3.217807 , 2.2601264
2.030283 , -3.2944214 , 1.7238252
0.30645782 , -4.6351743 , 3.1028855
-0.5746084 , -5.2863975 , 5.439626
-1.1109096 , -6.742072 , 9.883265
-0.5746084 , -10.113108 , 12.641385
-2.1068976 , -13.254301 , 11.300632
-5.056554 , -11.951855 , 7.2783732
-4.596867 , -10.419566 , 2.9879637
-0.2681506 , -11.18571 , 5.899313
1.0342951 , -11.377247 , 6.8569937
4.5202527 , -10.994174 , 6.397307
6.6271505 , -14.901511 , 7.431602
3.1794999 , -9.80665 , -3.3327289
4.2521024 , -4.9416323 , -5.363012
4.6351743 , -4.6351743 , -0.8810662
0.8810662 , -6.244078 , 1.4939818
-3.6391866 , -12.220005 , -1.8770541
0.34476504 , -12.449849 , 0.7278373
-1.0726024 , -10.266336 , 1.3024458
-2.2601264 , -8.925584 , -0.5363012
-0.6512229 , -10.6877165 , -1.6089035
-0.5746084 , -10.611102 , -1.9536686
-0.38307226 , -9.576807 , -1.6472107
-0.34476504 , -8.465898 , 1.4173675
0.0 , -8.42759 , 3.064578
-0.49799395 , -9.002198 , 2.2601264
-1.0726024 , -9.80665 , 1.1109096
-0.61291564 , -8.848969 , 1.685518
-0.45968673 , -8.772355 , 2.1452048
-0.61291564 , -8.580819 , 1.4173675
-0.6512229 , -8.197746 , -0.076614454
0.9576807 , -9.500193 , -3.5625722
0.9959879 , -10.381259 , -4.098873
0.45968673 , -10.649409 , -3.3327289
-1.4556746 , -10.649409 , -1.2258313
-0.5746084 , -12.794614 , 0.22984336
1.7621324 , -13.177686 , -0.7661445
2.0685902 , -12.29662 , -0.38307226
-1.1109096 , -13.139379 , -0.15322891
-1.7621324 , -14.671668 , -1.6089035
-1.5705963 , -14.173674 , -2.6431987
-1.9153614 , -12.717999 , -2.3750482
-0.91937345 , -13.9438305 , 2.528277
0.076614454 , -12.871228 , 4.098873
-0.038307227 , -11.224017 , 3.217807
1.3024458 , -11.798626 , 1.7238252
3.1028855 , -14.288596 , -3.5242648
4.9799395 , -15.820885 , -5.439626
6.933608 , -15.897499 , -4.2521024
4.5202527 , -10.266336 , 0.076614454
3.3327289 , -9.576807 , -0.19153613
2.336741 , -9.844957 , -2.7581203
0.2681506 , -9.615114 , -4.0222588
-3.6008794 , -9.423578 , 4.8267107
-2.9113493 , -9.423578 , 1.2641385
-1.7621324 , -8.772355 , -3.371036
-1.1875241 , -7.73806 , -3.9456444
0.2681506 , -5.094861 , -2.681506
0.6895301 , -3.9839516 , -2.1452048
1.1875241 , -2.9879637 , -1.1109096
1.1109096 , -2.6431987 , -0.19153613
0.7661445 , -1.8387469 , 3.1028855
0.5363012 , -2.1068976 , 5.209783
1.6472107 , -4.0222588 , 7.2783732
7.431602 , -16.203957 , 9.500193
5.5162406 , -19.804836 , 11.18571
0.22984336 , -16.548721 , 11.415554
-0.038307227 , -9.921572 , 8.772355
4.7884035 , -9.346964 , 4.596867
3.9839516 , -12.909535 , 6.090849
2.1452048 , -16.816874 , 10.802638
1.7238252 , -19.804836 , 6.742072
1.2641385 , -7.8146744 , -11.568783
7.0102224 , -1.532289 , -4.8267107
7.8146744 , -2.6048915 , 3.6774938
2.183512 , -6.742072 , -3.2944214
2.2218192 , -15.016433 , -4.3287168
-0.34476504 , -16.625336 , -2.873042
-3.064578 , -12.564771 , 0.91937345
-0.5746084 , -6.6654577 , -0.80445176
0.49799395 , -6.3589997 , -3.1028855
1.1875241 , -6.6271505 , -4.4819455
-0.49799395 , -7.393295 , -2.6431987
-2.4899697 , -8.772355 , 0.38307226
-3.5625722 , -10.879252 , -0.5746084
-4.2521024 , -13.369223 , -0.076614454
-3.6008794 , -12.028469 , 0.9576807
0.6895301 , -7.5082164 , 1.9536686
0.34476504 , -7.929596 , 0.8810662
-0.80445176 , -8.580819 , -0.19153613
-1.8387469 , -9.078813 , -0.45968673
-2.2984335 , -9.959879 , -0.076614454
-1.9153614 , -9.844957 , -0.2681506
-1.2641385 , -10.036493 , -0.80445176
-1.4173675 , -10.113108 , -1.2258313
-1.532289 , -10.994174 , -2.1068976
-1.340753 , -11.683704 , -2.2601264
-0.9959879 , -11.836933 , -1.4939818
-1.9919758 , -14.135366 , 1.532289
-2.3750482 , -14.709975 , 3.3327289
-3.2944214 , -13.905523 , 1.9919758
-2.719813 , -13.599066 , 0.0
1.4556746 , -11.990162 , 2.7581203
0.4213795 , -12.105083 , 2.6431987
1.0342951 , -11.224017 , 1.4556746
2.9496565 , -10.649409 , 0.34476504
8.772355 , -16.127342 , -1.2258313
7.3549876 , -15.74427 , -1.2641385
3.4093432 , -11.147403 , -1.1492168
2.9496565 , -9.155427 , 0.6512229
3.0262709 , -11.224017 , 2.1068976
0.80445176 , -12.29662 , -2.030283
-2.2218192 , -11.300632 , 1.9919758
-2.1452048 , -9.193734 , -0.34476504
-0.6512229 , -8.197746 , -2.2984335
-0.2681506 , -6.8186865 , -2.834735
1.2258313 , -3.1794999 , -1.3024458
2.2984335 , -2.1452048 , -0.7278373
2.7964275 , -2.1452048 , 0.0
2.4899697 , -2.3750482 , 0.22984336
1.7238252 , -3.1411927 , 0.91937345
0.038307227 , -4.0222588 , 3.064578
0.15322891 , -4.711789 , 6.205771
2.7581203 , -6.588843 , 11.722012
4.060566 , -15.667656 , 10.764331
1.1875241 , -18.847157 , 8.274361
0.5363012 , -18.004396 , 7.699753
2.7581203 , -12.871228 , 8.6574335
2.873042 , -10.151415 , 7.967903
3.217807 , -10.726024 , 10.342952
1.2258313 , -16.16565 , 9.078813
3.2944214 , -12.794614 , -0.4213795
2.4516625 , -3.6391866 , -3.6008794
3.1411927 , -4.55856 , 2.2601264
-2.834735 , -6.3589997 , 0.91937345
-1.5705963 , -9.078813 , -5.861006
0.15322891 , -11.683704 , -0.49799395
-0.19153613 , -12.564771 , -0.8810662
1.2641385 , -12.564771 , -2.7964275
2.9879637 , -8.734048 , -0.22984336
1.9153614 , -6.742072 , 0.19153613
0.61291564 , -7.086837 , 0.34476504
0.11492168 , -9.500193 , 0.5363012
-1.3024458 , -11.87524 , 1.1109096
-0.4213795 , -10.151415 , 2.6431987
0.8810662 , -8.274361 , 3.9839516
1.685518 , -6.703765 , 3.9839516
1.8004397 , -6.6654577 , 1.532289
0.9959879 , -7.086837 , -5.401319
1.340753 , -6.6271505 , -9.691729
2.030283 , -7.2783732 , -7.967903
-0.6512229 , -12.641385 , -0.19153613
-2.719813 , -13.484144 , 4.2521024
-2.2984335 , -14.480132 , 7.967903
-0.2681506 , -12.947843 , -0.15322891
-1.532289 , -12.181698 , -3.9073372
-1.5705963 , -14.365211 , -4.175488
-1.0342951 , -15.399506 , -2.681506
-2.873042 , -15.322891 , 2.834735
-3.7924154 , -16.587029 , 1.4939818
-1.9153614 , -16.01242 , 0.11492168
-0.11492168 , -12.947843 , -0.9576807
5.439626 , -10.955867 , -2.7581203
5.2480903 , -13.215993 , -3.6391866
4.2521024 , -15.897499 , -2.873042
4.9416323 , -15.1696615 , -0.9959879
4.367024 , -12.564771 , 1.532289
2.873042 , -11.453861 , 0.45968673
0.61291564 , -9.959879 , -2.1452048
-1.6089035 , -9.078813 , -2.566584
-2.9879637 , -8.159439 , 2.7964275
-2.681506 , -7.201759 , -0.6895301
-2.2218192 , -6.090849 , -2.834735
-1.1492168 , -4.060566 , -2.2601264
-0.11492168 , -2.2218192 , -2.6048915
0.6512229 , -1.5705963 , -1.9153614
1.3790601 , -1.0726024 , -1.4556746
0.6512229 , -1.0342951 , 1.532289
0.7661445 , -1.3790601 , 4.7884035
1.0342951 , -3.1028855 , 8.925584
2.4516625 , -8.00621 , 12.98615
5.899313 , -19.804836 , 12.143391
-0.38307226 , -18.579004 , 9.385271
0.6512229 , -11.492168 , 8.810662
7.240066 , -9.155427 , 4.711789
7.469909 , -10.113108 , 9.270349
4.4436383 , -16.893488 , 9.691729
3.9073372 , -16.587029 , 0.2681506
2.2218192 , -3.4859576 , -4.8267107
5.133168 , -3.2944214 , 0.6512229
-1.340753 , -5.4779334 , 0.22984336
-3.217807 , -7.6231384 , -6.4739213
-0.076614454 , -11.453861 , -1.1492168
-0.842759 , -12.411542 , -1.1109096
-1.6472107 , -11.9135475 , -1.9536686
-1.8387469 , -11.032481 , -1.9536686
-0.49799395 , -8.772355 , -1.1109096
-0.2681506 , -9.844957 , -0.7278373
-1.1109096 , -10.419566 , 0.38307226
-1.6089035 , -9.691729 , 1.532289
-0.2681506 , -8.236053 , 1.1875241
1.0726024 , -7.1251445 , 2.2984335
1.685518 , -7.0102224 , 3.715801
2.681506 , -6.895301 , -2.7581203
2.2984335 , -7.393295 , -5.592855
1.4556746 , -8.810662 , -5.861006
0.38307226 , -9.998186 , -3.9073372
-2.528277 , -11.836933 , 1.8004397
-3.1794999 , -12.679692 , 4.55856
-2.183512 , -13.024457 , 5.056554
-0.5746084 , -12.334928 , 2.566584
-0.6512229 , -12.98615 , -3.064578
0.30645782 , -14.5567465 , -2.719813
0.34476504 , -13.445837 , 0.5363012
-4.175488 , -15.322891 , 3.4476504
-3.8307228 , -15.131354 , 2.6431987
-1.8770541 , -14.097059 , -0.5363012
0.61291564 , -12.066776 , -2.030283
5.094861 , -11.60709 , -4.9799395
2.873042 , -15.859192 , -4.1371803
4.2904096 , -18.23424 , -1.9153614
5.094861 , -16.357185 , 0.9576807
5.2863975 , -13.67568 , 2.7581203
3.8307228 , -13.445837 , 0.30645782
1.4939818 , -10.91756 , -5.631162
-1.7238252 , -9.576807 , -8.389283
-5.0182467 , -7.8529816 , 1.7238252
-3.1411927 , -6.8186865 , -1.1492168
-1.2641385 , -5.209783 , -3.6391866
0.842759 , -2.566584 , -2.030283
1.8387469 , -1.8004397 , -2.1068976
2.4516625 , -1.8004397 , -1.9919758
2.4516625 , -1.6089035 , -1.4939818
1.2641385 , -1.1875241 , 1.532289
0.4213795 , -1.340753 , 4.060566
0.2681506 , -2.719813 , 7.201759
2.030283 , -6.7803793 , 11.60709
4.367024 , -19.804836 , 14.480132
-1.6089035 , -19.115307 , 10.611102
-1.0342951 , -11.33894 , 9.461885
0.6512229 , -6.244078 , 8.197746
4.1371803 , -10.572795 , 5.2863975
1.6089035 , -16.050728 , 10.726024
1.7238252 , -19.804836 , 5.0182467
1.3024458 , -4.55856 , -5.899313
5.66947 , -2.4133554 , -3.4093432
2.834735 , -3.064578 , 0.7278373
-1.6089035 , -8.848969 , -5.171476
-0.5746084 , -9.691729 , -3.4476504
-1.2258313 , -11.300632 , -2.9113493
-1.6089035 , -13.40753 , -2.2218192
0.5363012 , -11.9135475 , -2.2601264
1.685518 , -9.959879 , -1.4173675
0.5746084 , -9.385271 , 1.1109096
-0.7278373 , -9.5385 , 2.030283
-0.2681506 , -9.232041 , 1.8770541
0.61291564 , -8.465898 , 1.6472107
1.532289 , -7.5465236 , 2.4133554
1.9153614 , -7.0485296 , 0.80445176
1.4173675 , -6.397307 , -2.9113493
0.7661445 , -6.588843 , -5.094861
0.4213795 , -9.308656 , -3.86903
-0.38307226 , -11.18571 , -1.3024458
-1.8387469 , -11.645397 , 1.0342951
-2.4516625 , -12.603078 , 4.2521024
0.076614454 , -13.139379 , 1.9536686
-1.6089035 , -12.181698 , -1.685518
-0.8810662 , -14.978126 , -1.4939818
-1.7621324 , -13.139379 , 0.61291564
-3.0262709 , -13.177686 , 2.4133554
-3.4093432 , -15.246277 , 2.681506
-0.34476504 , -14.78659 , -0.61291564
2.3750482 , -10.6877165 , -0.5746084
4.7500963 , -8.619126 , -0.6512229
4.2521024 , -10.802638 , -4.2904096
3.1794999 , -16.778566 , -1.9536686
4.6351743 , -16.357185 , 0.15322891
3.7924154 , -14.250289 , 1.8770541
2.681506 , -13.445837 , 2.336741
0.19153613 , -12.220005 , -4.098873
-1.9919758 , -10.457873 , -5.746084
-3.0262709 , -8.734048 , -0.4213795
-1.5705963 , -7.0485296 , -2.7581203
-0.91937345 , -4.903325 , -4.175488
-0.076614454 , -3.2944214 , -2.3750482
-0.19153613 , -2.4516625 , -1.0726024
1.4556746 , -0.842759 , -1.9536686
1.9919758 , -1.2258313 , -0.91937345
2.2601264 , -1.4556746 , 0.34476504
1.8770541 , -1.2258313 , 2.2218192
2.2984335 , -5.094861 , 10.840945
3.064578 , -10.649409 , 15.935806
9.078813 , -19.230228 , 15.974113
6.7803793 , -19.804836 , 9.078813
1.8387469 , -7.3166804 , 6.0525417
3.6008794 , -5.094861 , 6.703765
4.6351743 , -8.236053 , 7.240066
3.5625722 , -16.089035 , 5.363012
2.030283 , -15.284584 , -0.15322891
0.80445176 , -9.002198 , -2.873042
5.439626 , -4.7884035 , -2.4133554
-2.2218192 , -7.73806 , -1.4939818
-2.2984335 , -9.615114 , -5.66947
-0.038307227 , -9.002198 , -3.4093432
0.2681506 , -9.232041 , -1.685518
-0.2681506 , -10.266336 , -3.4093432
-0.80445176 , -11.070788 , -4.865018
-0.5363012 , -13.254301 , -1.8387469
-1.8387469 , -12.334928 , 1.5705963
-0.91937345 , -9.844957 , 2.2984335
0.30645782 , -8.580819 , 2.030283
1.4939818 , -7.0485296 , 0.7661445
1.7238252 , -6.742072 , 2.4133554
1.0342951 , -7.5465236 , 3.6008794
0.8810662 , -7.5465236 , 1.4939818
0.5363012 , -7.469909 , -2.9113493
0.5363012 , -8.350976 , -4.9416323
0.61291564 , -10.6877165 , -1.9536686
-0.5363012 , -11.836933 , 0.9959879
-4.060566 , -10.764331 , 6.0525417
-1.340753 , -11.070788 , 0.7278373
1.340753 , -12.028469 , -3.2561142
0.8810662 , -12.564771 , -3.5625722
0.19153613 , -12.794614 , -3.064578
-0.22984336 , -13.330915 , 1.340753
-3.0262709 , -12.871228 , 1.9919758
-5.209783 , -14.824897 , 0.5746084
-2.566584 , -15.7825775 , -0.076614454
-0.4213795 , -15.246277 , 0.34476504
1.9919758 , -11.377247 , 1.4556746
4.673482 , -7.967903 , 1.3790601
1.9153614 , -14.5567465 , -4.6351743
1.9919758 , -17.468096 , -3.1794999
4.060566 , -17.27656 , -0.842759
3.3327289 , -14.671668 , 1.6472107
1.8387469 , -12.717999 , 2.183512
0.9576807 , -11.760319 , -2.719813
-1.4556746 , -10.840945 , -6.5505357
-3.371036 , -8.963891 , -2.1452048
-2.4899697 , -7.469909 , -2.2984335
-1.7238252 , -5.861006 , -3.1794999
-0.4213795 , -3.8307228 , -1.5705963
0.80445176 , -1.8387469 , -1.685518
1.685518 , -1.0342951 , -1.8770541
2.0685902 , -0.7278373 , -1.4556746
1.6472107 , -0.7661445 , -0.45968673
0.91937345 , -1.1492168 , 4.1371803
1.8387469 , -2.9879637 , 6.3589997
3.715801 , -7.431602 , 8.734048
6.5505357 , -16.472107 , 12.5264635
-1.9919758 , -19.536686 , 10.840945
-1.2641385 , -11.147403 , 9.615114
0.45968673 , -2.9113493 , 9.11712
3.6008794 , -5.363012 , 6.397307
-1.1109096 , -16.050728 , 10.764331
1.7238252 , -19.804836 , 3.4859576
6.205771 , -17.81286 , -2.9113493
6.8186865 , -0.45968673 , -3.1411927
4.2521024 , -2.4516625 , 0.6512229
-1.4939818 , -6.9719152 , -5.631162
-1.1109096 , -7.776367 , -6.205771
-0.5363012 , -10.879252 , -3.6391866
-1.4939818 , -11.109096 , -3.1028855
-1.7238252 , -11.032481 , -3.0262709
-1.6472107 , -13.445837 , -2.9496565
-0.7278373 , -12.909535 , 0.80445176
-0.34476504 , -9.308656 , 2.9496565
0.11492168 , -7.086837 , 2.7964275
-0.076614454 , -6.2823853 , 2.6431987
0.61291564 , -7.3166804 , 1.3790601
0.91937345 , -7.73806 , 0.076614454
1.340753 , -7.5465236 , -2.9113493
1.532289 , -7.5848308 , -2.3750482
0.61291564 , -9.155427 , -0.9959879
-1.4939818 , -10.266336 , 0.4213795
-3.064578 , -10.994174 , 1.5705963
-2.3750482 , -11.798626 , 0.38307226
0.15322891 , -12.373235 , -1.1875241
0.91937345 , -12.717999 , -0.15322891
-0.49799395 , -12.143391 , 0.038307227
0.30645782 , -15.284584 , -0.2681506
-0.80445176 , -14.480132 , 0.9959879
-3.1794999 , -14.863204 , 1.7238252
-4.367024 , -16.395493 , 2.528277
-0.8810662 , -14.288596 , -0.842759
2.528277 , -10.649409 , -1.4556746
5.056554 , -8.772355 , -1.9153614
1.9536686 , -15.705963 , -3.371036
4.2904096 , -17.621325 , -1.532289
5.631162 , -16.74026 , 0.91937345
4.8267107 , -15.1696615 , 1.9919758
2.2601264 , -12.181698 , -1.7621324
0.11492168 , -10.6877165 , -5.707777
-2.2218192 , -9.232041 , -4.367024
-3.217807 , -7.5848308 , -1.1875241
-2.183512 , -5.554548 , -3.064578
-1.9536686 , -4.098873 , -2.030283
-0.7278373 , -3.064578 , -1.5705963
1.1492168 , -0.7278373 , -2.9879637
2.1068976 , -0.4213795 , -2.4133554
1.8770541 , -0.5363012 , 0.842759
0.91937345 , -3.064578 , 6.588843
1.9919758 , -6.742072 , 10.572795
6.205771 , -15.47612 , 16.203957
9.078813 , -19.804836 , 14.633361
0.11492168 , -12.449849 , 8.159439
1.9536686 , -3.7541082 , 9.500193
4.7884035 , -5.9759274 , 7.1251445
3.9073372 , -10.457873 , 8.734048
3.6391866 , -19.804836 , -0.6512229
3.6008794 , -12.028469 , -4.405331
3.7924154 , -2.4516625 , -6.090849
6.895301 , -0.38307226 , 0.11492168
-3.6391866 , -8.082825 , -5.5162406
-0.8810662 , -9.385271 , -5.631162
0.5363012 , -10.726024 , -3.6391866
-3.3327289 , -15.131354 , -2.719813
-1.4939818 , -14.518439 , -2.681506
0.61291564 , -10.189722 , -1.7238252
2.873042 , -7.431602 , -0.5363012
1.1109096 , -8.389283 , 2.4516625
-0.45968673 , -9.883265 , 2.0685902
-1.340753 , -10.304645 , 1.7238252
-0.6895301 , -9.423578 , 1.9919758
0.7661445 , -6.895301 , 2.4133554
1.8387469 , -5.93762 , -1.1109096
1.8004397 , -5.094861 , -5.401319
1.4556746 , -8.389283 , -4.9416323
0.8810662 , -11.492168 , -2.6048915
-1.0342951 , -13.062764 , 0.22984336
-2.9113493 , -13.369223 , 4.2904096
-1.2641385 , -12.641385 , 6.205771
0.38307226 , -12.028469 , 0.30645782
0.11492168 , -11.760319 , -4.2904096
-0.6512229 , -13.40753 , -4.5202527
-2.336741 , -15.820885 , 1.2258313
-4.2904096 , -14.824897 , 4.098873
-4.0222588 , -16.089035 , 2.7581203
-2.2984335 , -15.7825775 , -0.4213795
4.098873 , -9.959879 , -1.7621324
4.060566 , -12.756307 , -3.1028855
2.1452048 , -16.357185 , -3.5625722
4.9799395 , -16.510414 , 0.15322891
4.903325 , -14.518439 , 1.1875241
4.5202527 , -13.828909 , 1.340753
2.4899697 , -12.181698 , -0.6895301
-0.8810662 , -9.461885 , -6.742072
-4.2521024 , -8.350976 , 0.49799395
-4.098873 , -7.929596 , 1.3790601
-2.7964275 , -6.9719152 , -2.719813
-0.38307226 , -3.217807 , -2.719813
0.61291564 , -2.336741 , -2.4516625
1.3790601 , -1.2641385 , -2.7581203
2.4133554 , -0.842759 , -2.2984335
2.336741 , -0.80445176 , 0.2681506
1.6472107 , -1.2258313 , 2.6048915
1.340753 , -1.9919758 , 4.711789
1.7621324 , -4.405331 , 7.6614456
8.082825 , -18.92377 , 15.705963
1.9919758 , -19.804836 , 13.484144
-1.7238252 , -18.119318 , 9.155427
1.4939818 , -1.3024458 , 8.542512
3.1028855 , -7.0102224 , 6.5505357
-0.19153613 , -12.181698 , 5.3247046
-0.7661445 , -14.518439 , 6.0525417
6.5505357 , -16.242264 , -4.673482
5.056554 , -5.707777 , -3.6774938
5.93762 , -2.719813 , 0.80445176
-0.11492168 , -4.596867 , 0.4213795
-0.7278373 , -7.929596 , -5.7843914
0.45968673 , -9.576807 , -4.4819455
-2.030283 , -12.832921 , -3.217807
-3.1411927 , -15.74427 , -2.6431987
-0.842759 , -10.91756 , -1.6089035
1.5705963 , -8.6574335 , 0.0
2.030283 , -7.8912888 , 1.340753
-0.49799395 , -8.389283 , 1.9919758
-0.49799395 , -8.695741 , 0.61291564
0.15322891 , -8.0445175 , 2.2984335
0.7278373 , -7.6231384 , 2.1068976
2.4516625 , -6.8186865 , -5.363012
2.336741 , -6.703765 , -5.66947
2.183512 , -8.465898 , -3.7541082
1.2641385 , -11.18571 , -0.8810662
-3.064578 , -11.951855 , 6.205771
-2.834735 , -12.488156 , 5.93762
-0.61291564 , -11.798626 , 0.842759
-0.30645782 , -10.994174 , -3.8307228
-1.9153614 , -14.403518 , -2.7581203
-2.0685902 , -14.288596 , -0.11492168
-0.7661445 , -14.824897 , 1.0342951
-2.030283 , -16.318878 , 1.1492168
-1.5705963 , -15.629349 , 0.6512229
0.38307226 , -12.258312 , 0.11492168
3.4093432 , -10.6877165 , -0.49799395
6.205771 , -13.484144 , -3.8307228
5.094861 , -15.705963 , -3.5242648
5.2480903 , -14.824897 , -1.8770541
4.6351743 , -12.794614 , -1.4939818
3.2944214 , -11.722012 , -0.19153613
1.0726024 , -10.496181 , 0.6512229
-0.61291564 , -10.611102 , -1.4173675
-2.2601264 , -10.381259 , -2.4516625
-2.9496565 , -8.6574335 , -1.5705963
-1.532289 , -7.5082164 , -2.6431987
-0.22984336 , -6.129156 , -2.4516625
1.3790601 , -3.0262709 , -2.681506
1.6472107 , -1.9536686 , -1.9536686
1.7621324 , -1.8004397 , -1.4173675
2.030283 , -2.030283 , -0.7661445
1.5705963 , -1.4173675 , 2.336741
1.4556746 , -1.7238252 , 4.405331
1.8004397 , -3.7924154 , 7.0102224
2.9113493 , -9.385271 , 11.645397
4.7884035 , -19.804836 , 12.871228
-0.19153613 , -15.47612 , 11.60709
-0.22984336 , -10.113108 , 9.5385
0.5746084 , -6.933608 , 7.0485296
2.6048915 , -12.641385 , 5.592855
1.4173675 , -16.357185 , 8.121132
3.5242648 , -19.804836 , 3.5625722
3.371036 , -4.55856 , -6.397307
5.93762 , -0.2681506 , -3.1028855
3.5625722 , -2.7581203 , 1.1492168
-1.0726024 , -7.73806 , -3.6774938
-0.30645782 , -10.572795 , -4.673482
-1.2258313 , -12.488156 , -3.9073372
-2.719813 , -13.369223 , -2.528277
-1.5705963 , -13.369223 , -1.4173675
0.5746084 , -11.109096 , 0.91937345
0.2681506 , -9.423578 , 1.2258313
-0.076614454 , -9.11712 , 0.91937345
-0.6895301 , -9.883265 , -0.49799395
-1.2258313 , -8.6574335 , 0.15322891
0.30645782 , -7.8146744 , 0.61291564
1.3790601 , -6.7803793 , 1.4556746
1.2258313 , -6.588843 , -3.1411927
0.7278373 , -7.086837 , -4.060566
0.22984336 , -7.5848308 , -3.0262709
-0.6895301 , -8.887277 , -1.5705963
-2.6048915 , -11.224017 , 1.8770541
-2.9113493 , -10.189722 , 2.1068976
-2.4516625 , -10.457873 , 0.49799395
-1.6472107 , -12.373235 , 0.45968673
0.19153613 , -13.101071 , 1.1875241
1.1109096 , -13.330915 , -0.2681506
1.685518 , -13.445837 , -1.2258313
1.5705963 , -12.717999 , -0.842759
-2.2218192 , -14.058752 , 2.834735
-3.064578 , -12.5264635 , 4.673482
-3.1411927 , -12.449849 , 2.834735
0.2681506 , -13.484144 , -0.11492168
2.3750482 , -12.871228 , -2.2984335
3.2944214 , -14.901511 , -3.2944214
4.6351743 , -17.96609 , -2.183512
2.2984335 , -13.522451 , 0.22984336
2.183512 , -13.254301 , 0.0
2.4516625 , -13.445837 , -2.4899697
0.6895301 , -14.671668 , -6.090849
-4.9416323 , -11.9135475 , 2.030283
-3.1411927 , -10.955867 , 0.6512229
-0.45968673 , -9.11712 , -2.030283
1.1109096 , -5.2863975 , -3.1028855
1.532289 , -3.1794999 , -1.0726024
1.4939818 , -1.8770541 , -1.0342951
1.6089035 , -1.8004397 , -1.3790601
2.2601264 , -1.6089035 , -0.80445176
1.9919758 , -1.8387469 , 0.22984336
1.8770541 , -2.4516625 , 1.8004397
2.2984335 , -3.5625722 , 3.064578
2.1068976 , -8.6574335 , 6.0525417
1.532289 , -13.790602 , 8.695741
0.49799395 , -17.583017 , 12.028469
-3.9456444 , -15.131354 , 13.177686
-4.673482 , -7.1634517 , 9.270349
-2.7964275 , -6.4739213 , 6.2823853
1.1109096 , -9.80665 , 4.4436383
2.0685902 , -12.641385 , 4.175488
2.4899697 , -15.705963 , 8.312668
5.707777 , -19.804836 , 4.4819455
6.9719152 , -13.101071 , 0.11492168
4.7500963 , -2.3750482 , -1.1875241
1.685518 , -3.86903 , -0.30645782
-2.4133554 , -7.5082164 , -4.060566
-2.7964275 , -10.726024 , -5.133168
-2.4899697 , -13.292608 , -0.9959879
-0.49799395 , -13.254301 , -0.038307227
0.80445176 , -11.262324 , 0.61291564
2.1452048 , -8.389283 , 0.076614454
2.566584 , -7.776367 , -1.2641385
1.2258313 , -8.389283 , -0.6512229
-0.842759 , -9.998186 , -0.80445176
-3.064578 , -11.683704 , 0.076614454
-1.8004397 , -9.730036 , 1.1492168
-0.45968673 , -7.2783732 , 2.0685902
0.2681506 , -5.631162 , 1.0726024
0.45968673 , -7.3549876 , -2.7581203
0.19153613 , -9.461885 , -2.2218192
0.4213795 , -10.955867 , -1.3024458
-0.15322891 , -10.266336 , -0.076614454
-2.6431987 , -9.691729 , 2.0685902
-1.7238252 , -10.457873 , 1.4556746
0.038307227 , -11.147403 , 0.61291564
1.1109096 , -11.798626 , -0.61291564
1.3024458 , -12.603078 , -0.9576807
-0.7661445 , -12.756307 , 0.038307227
-1.9153614 , -15.246277 , 0.45968673
-1.9536686 , -16.893488 , 1.8770541
-0.91937345 , -16.357185 , 1.685518
0.6512229 , -14.518439 , 2.1068976
3.2561142 , -10.764331 , 3.217807
7.431602 , -13.67568 , -0.842759
7.086837 , -16.242264 , -3.064578
6.8186865 , -15.20797 , -3.5242648
3.7924154 , -12.679692 , -3.4476504
0.80445176 , -16.01242 , 6.742072
0.9576807 , -14.518439 , 4.7884035
-0.61291564 , -12.794614 , -3.1028855
-2.528277 , -12.488156 , -0.842759
-1.5705963 , -10.189722 , -1.4173675
0.15322891 , -6.9719152 , -2.030283
0.7661445 , -5.209783 , -1.1492168
2.2984335 , -1.8387469 , 0.2681506
2.183512 , -0.6895301 , 0.91937345
1.5705963 , -0.076614454 , 2.3750482
2.030283 , 0.38307226 , 3.3327289
4.2904096 , -0.49799395 , 4.865018
4.7500963 , -2.1452048 , 4.673482
2.9113493 , -3.9456444 , 7.201759
1.5705963 , -5.2480903 , 9.002198
2.1068976 , -6.7803793 , 9.959879
3.5242648 , -5.0182467 , 10.266336
4.6351743 , -3.3327289 , 10.151415
5.8226986 , -3.7924154 , 8.42759
5.592855 , -10.611102 , 6.6654577
3.2561142 , -13.560759 , 8.465898
-1.340753 , -14.288596 , 12.909535
0.842759 , -13.101071 , 1.532289
4.8267107 , -10.649409 , -2.7964275
8.619126 , -9.193734 , -0.91937345
9.040505 , -9.500193 , 1.8387469
1.4556746 , -10.151415 , -0.4213795
1.3024458 , -11.33894 , 0.038307227
-0.076614454 , -11.9135475 , -0.19153613
-2.030283 , -12.334928 , -0.30645782
-2.336741 , -11.300632 , 0.842759
-0.8810662 , -9.576807 , 0.7661445
-0.15322891 , -8.6574335 , 0.5363012
0.2681506 , -8.504205 , 0.30645782
0.038307227 , -8.504205 , -0.38307226
-0.9959879 , -8.810662 , -0.8810662
-1.5705963 , -10.189722 , 0.91937345
-1.6472107 , -9.078813 , 1.8770541
-1.0342951 , -8.121132 , 0.9576807
-0.842759 , -7.086837 , 0.22984336
-0.7278373 , -6.588843 , 0.45968673
-0.7278373 , -7.1251445 , -2.4133554
-0.038307227 , -7.3166804 , -3.9456444
0.7661445 , -7.5848308 , -3.2944214
1.2641385 , -7.8912888 , -1.8770541
0.0 , -10.381259 , -0.4213795
-0.5363012 , -11.60709 , -0.4213795
-0.038307227 , -12.373235 , -1.2641385
0.2681506 , -12.373235 , -1.7621324
-0.30645782 , -11.951855 , -1.4939818
0.6895301 , -12.564771 , -1.685518
1.0726024 , -13.330915 , -1.2641385
-1.8387469 , -15.437813 , -0.2681506
-2.0685902 , -16.203957 , -1.8387469
-1.6472107 , -15.20797 , -1.340753
-1.685518 , -14.288596 , 0.91937345
-1.1109096 , -10.342952 , 1.7238252
-0.6895301 , -10.381259 , 0.38307226
-0.45968673 , -11.760319 , -0.49799395
0.22984336 , -13.522451 , -0.91937345
3.0262709 , -15.20797 , -2.9496565
4.55856 , -14.5567465 , -3.3327289
4.9799395 , -13.177686 , -2.4899697
4.213795 , -12.717999 , -1.8770541
1.532289 , -10.611102 , -3.064578
-1.1492168 , -10.457873 , -1.6472107
-4.5202527 , -11.33894 , 1.8387469
-1.0726024 , -9.385271 , 0.5746084
0.61291564 , -7.393295 , -1.340753
-2.2601264 , -9.270349 , -0.6895301
-2.1068976 , -9.500193 , -1.4939818
0.9959879 , -4.367024 , -2.834735
2.1068976 , -2.336741 , -1.7238252
3.6774938 , -0.6512229 , -0.4213795
3.5242648 , -0.22984336 , 0.4213795
2.1452048 , -2.2601264 , 1.7621324
1.9919758 , -3.4476504 , 2.1452048
1.8387469 , -4.865018 , 3.1794999
0.9576807 , -6.0525417 , 5.592855
-0.7278373 , -9.653421 , 11.18571
-0.91937345 , -12.947843 , 12.028469
0.6512229 , -14.403518 , 11.262324
1.5705963 , -9.308656 , 7.776367
1.1109096 , -6.8569937 , 7.201759
2.681506 , -7.3166804 , 7.8529816
3.1411927 , -13.215993 , 7.776367
4.4436383 , -18.464083 , 8.236053
5.592855 , -12.181698 , 4.1371803
5.056554 , -4.213795 , -2.336741
3.9073372 , -3.371036 , -2.4516625
0.076614454 , -6.6271505 , 1.4556746
-1.0342951 , -8.848969 , -4.2904096
0.61291564 , -11.33894 , -3.6391866
-1.340753 , -13.292608 , 0.038307227
-0.80445176 , -11.60709 , 0.038307227
1.1492168 , -9.576807 , 0.842759
1.4556746 , -7.929596 , 1.340753
1.8770541 , -6.244078 , -0.15322891
1.3024458 , -6.8569937 , -1.3790601
-0.61291564 , -8.963891 , -1.4939818
-1.532289 , -11.722012 , 0.15322891
-1.0342951 , -11.032481 , 1.3024458
0.30645782 , -8.619126 , 2.566584
1.4556746 , -7.0102224 , 4.4819455
1.8004397 , -6.9719152 , 4.098873
2.2218192 , -7.3549876 , -5.363012
2.2218192 , -8.312668 , -6.5122285
1.3024458 , -9.5385 , -4.9799395
0.5746084 , -10.994174 , -1.9919758
-3.371036 , -11.492168 , 6.0525417
-0.6895301 , -12.066776 , 2.4133554
2.6431987 , -12.5264635 , -2.9113493
0.61291564 , -11.87524 , -2.6048915
-2.030283 , -13.024457 , -0.49799395
-2.6048915 , -14.365211 , 0.61291564
-2.681506 , -15.1696615 , 0.038307227
-2.4516625 , -15.20797 , -0.5746084
-1.6089035 , -14.365211 , 0.5363012
-0.38307226 , -12.5264635 , 1.1875241
1.5705963 , -11.300632 , 1.685518
3.064578 , -12.105083 , -2.336741
1.6472107 , -13.637373 , -4.405331
2.030283 , -14.978126 , -3.5242648
4.060566 , -15.322891 , -1.9153614
4.673482 , -13.292608 , 0.9959879
3.6774938 , -12.29662 , 0.2681506
2.336741 , -11.147403 , -2.566584
-1.6089035 , -9.308656 , -1.0342951
-3.064578 , -9.193734 , 1.5705963
-1.9536686 , -8.082825 , 1.7238252
-2.030283 , -8.236053 , -2.2984335
-0.7661445 , -5.401319 , -2.6048915
1.0342951 , -3.7541082 , -3.371036
1.4173675 , -2.873042 , -2.2984335
2.030283 , -1.7621324 , -1.1875241
2.4516625 , -0.38307226 , 0.076614454
1.9536686 , -1.0726024 , 1.532289
1.2641385 , -2.183512 , 3.9456444
1.6472107 , -3.6391866 , 6.5505357
4.4436383 , -9.5385 , 11.492168
5.8226986 , -13.713987 , 10.611102
2.9879637 , -13.67568 , 10.726024
-0.30645782 , -12.832921 , 10.496181
0.7278373 , -10.496181 , 9.232041
2.4516625 , -6.2823853 , 8.121132
5.2863975 , -5.9759274 , 8.6574335
3.3327289 , -19.651608 , 8.082825
1.1109096 , -19.728222 , 8.197746
2.030283 , -11.33894 , -1.7621324
5.094861 , -0.4213795 , -8.465898
6.244078 , -1.685518 , 5.363012
-2.030283 , -6.703765 , -0.49799395
-0.9959879 , -11.147403 , -5.7843914
0.6512229 , -13.101071 , -2.9113493
-4.213795 , -14.901511 , -1.8387469
-1.9153614 , -14.518439 , -2.528277
0.038307227 , -12.449849 , -2.7581203
2.834735 , -8.121132 , -0.11492168
2.3750482 , -8.197746 , 0.45968673
1.3790601 , -9.308656 , 0.842759
-0.076614454 , -10.342952 , 0.7278373
-0.038307227 , -9.653421 , 1.7238252
0.30645782 , -8.159439 , 3.4859576
0.842759 , -6.8569937 , 3.5625722
1.685518 , -5.9759274 , 1.7238252
1.7621324 , -5.93762 , -6.895301
2.7581203 , -6.5122285 , -7.5848308
2.6431987 , -8.963891 , -4.1371803
0.34476504 , -11.87524 , -0.45968673
-4.0222588 , -13.101071 , 6.3206925
0.30645782 , -12.679692 , 2.834735
1.4939818 , -11.224017 , -1.1492168
0.49799395 , -11.262324 , -3.0262709
-1.3790601 , -13.599066 , -1.8770541
-3.6774938 , -17.085024 , 1.1875241
-3.715801 , -16.050728 , 2.3750482
-3.2561142 , -15.667656 , 0.8810662
-1.8004397 , -14.939818 , -1.4173675
4.367024 , -10.994174 , -1.532289
4.5202527 , -13.330915 , -2.528277
3.5625722 , -15.514427 , -2.528277
4.405331 , -15.131354 , 0.11492168
4.098873 , -14.441825 , 0.842759
3.6391866 , -14.441825 , 0.2681506
2.1068976 , -12.488156 , -2.566584
-2.336741 , -10.036493 , -4.060566
-5.554548 , -9.80665 , 2.183512
-4.3287168 , -8.887277 , 1.4173675
-1.9919758 , -7.469909 , -2.7964275
-0.38307226 , -4.060566 , -3.715801
0.15322891 , -2.9113493 , -3.5625722
0.9959879 , -2.2601264 , -2.4899697
2.1068976 , -1.4173675 , -1.6089035
2.336741 , -0.5746084 , 0.2681506
1.6472107 , -0.842759 , 2.1452048
1.3790601 , -1.3790601 , 4.4436383
2.7964275 , -8.504205 , 11.760319
5.401319 , -16.85518 , 13.215993
3.2944214 , -19.804836 , 11.951855
0.19153613 , -16.663643 , 10.266336
2.6431987 , -10.342952 , 8.0445175
5.439626 , -11.492168 , 5.3247046
5.094861 , -10.381259 , 9.615114
3.5625722 , -15.322891 , 10.611102
2.2218192 , -7.5082164 , -2.566584
3.4476504 , -4.711789 , -2.1068976
3.3327289 , -4.2904096 , 1.6472107
-1.8387469 , -5.707777 , 0.9576807
-0.80445176 , -9.5385 , -5.171476
-0.6512229 , -11.070788 , -2.030283
-2.336741 , -13.254301 , -0.38307226
-1.1492168 , -11.990162 , -1.532289
1.4173675 , -8.810662 , -1.1875241
3.3327289 , -6.588843 , -1.1109096
2.9879637 , -7.201759 , -0.91937345
-0.4213795 , -12.028469 , 2.0685902
-1.4556746 , -12.411542 , 2.4899697
-1.5705963 , -10.189722 , 3.064578
0.19153613 , -8.236053 , 2.6431987
1.7238252 , -7.3549876 , 3.2561142
1.685518 , -7.3166804 , 2.2984335
0.91937345 , -6.895301 , 0.0
0.038307227 , -6.8186865 , -3.7541082
0.076614454 , -10.496181 , -5.707777
-0.038307227 , -11.836933 , -2.873042
-0.842759 , -11.836933 , -0.22984336
-1.5705963 , -11.683704 , 7.3549876
0.38307226 , -11.836933 , 3.5625722
2.2601264 , -13.215993 , -2.681506
2.528277 , -12.756307 , -5.8226986
-1.0726024 , -13.9438305 , -2.2601264
-3.3327289 , -15.437813 , 0.11492168
-4.8267107 , -15.74427 , 1.4173675
-4.7884035 , -15.705963 , 1.0342951
-0.7661445 , -11.990162 , 0.91937345
0.9576807 , -10.419566 , 1.0726024
3.4476504 , -9.270349 , 0.38307226
3.7924154 , -14.403518 , -2.7581203
2.9879637 , -16.127342 , -2.9113493
2.719813 , -15.05474 , -1.3024458
2.3750482 , -13.062764 , 0.2681506
1.3790601 , -12.756307 , -0.9959879
0.0 , -10.802638 , -3.2944214
-2.1452048 , -9.768343 , -3.5242648
-2.9496565 , -9.078813 , 2.2984335
-1.0726024 , -6.933608 , -2.030283
-0.5746084 , -5.746084 , -2.6431987
-0.91937345 , -5.3247046 , -1.8004397
-0.5363012 , -4.711789 , -1.4939818
0.34476504 , -2.9113493 , -0.80445176
1.2258313 , -2.2984335 , -0.15322891
1.9153614 , -2.2218192 , 0.80445176
2.3750482 , -2.2218192 , 3.715801
2.681506 , -2.528277 , 5.133168
3.4093432 , -4.673482 , 7.8529816
4.2904096 , -9.730036 , 10.189722
1.3790601 , -19.038692 , 12.5264635
-2.1452048 , -15.131354 , 10.304645
-1.6089035 , -9.998186 , 9.193734
0.38307226 , -6.7803793 , 8.350976
4.0222588 , -11.760319 , 5.094861
1.6089035 , -12.449849 , 10.496181
0.22984336 , -16.816874 , 9.040505
5.171476 , -16.089035 , -0.842759
5.133168 , -3.9073372 , -3.1794999
4.4819455 , -4.1371803 , 2.566584
-1.7621324 , -6.4739213 , -0.22984336
-0.4213795 , -8.887277 , -4.2521024
-0.30645782 , -10.189722 , -1.9536686
-0.4213795 , -11.33894 , -2.1452048
-0.4213795 , -11.377247 , -2.4516625
0.4213795 , -10.764331 , -1.1875241
-0.5363012 , -11.18571 , -1.8770541
-0.9576807 , -11.147403 , -0.9576807
-0.6512229 , -10.649409 , 0.7278373
-1.2258313 , -8.734048 , 2.528277
-0.19153613 , -7.929596 , 1.0726024
1.2641385 , -7.6231384 , 1.685518
1.8004397 , -7.5848308 , 2.9113493
1.0342951 , -6.742072 , -2.834735
0.49799395 , -7.0485296 , -5.2480903
0.49799395 , -8.274361 , -4.213795
0.076614454 , -11.300632 , 0.30645782
-2.3750482 , -10.534488 , 3.2561142
-3.5625722 , -10.496181 , 4.9416323
-1.6472107 , -11.224017 , 0.6895301
0.91937345 , -12.5264635 , -2.2984335
1.0726024 , -13.062764 , -2.2601264
1.2258313 , -13.637373 , -1.8004397
0.34476504 , -12.794614 , -0.038307227
-4.2521024 , -15.437813 , -0.2681506
-4.405331 , -15.935806 , 0.2681506
-2.9879637 , -16.510414 , 0.2681506
-0.80445176 , -14.78659 , 0.4213795
3.9839516 , -8.274361 , 1.8770541
6.742072 , -9.078813 , -1.340753
3.86903 , -14.403518 , -4.2521024
4.213795 , -16.472107 , -1.4939818
2.681506 , -14.058752 , 1.3024458
0.7278373 , -13.292608 , 2.6048915
1.2641385 , -13.330915 , 1.532289
-1.2641385 , -11.147403 , -4.5202527
-2.336741 , -9.883265 , -2.9496565
-3.1794999 , -8.887277 , -0.61291564
-2.4899697 , -7.5465236 , -0.49799395
-0.5746084 , -5.861006 , -1.9919758
-0.19153613 , -3.9839516 , -1.2641385
0.9959879 , -2.2601264 , -1.340753
1.685518 , -1.1109096 , -1.2258313
1.7238252 , -0.7278373 , -0.15322891
0.91937345 , -1.3024458 , 1.5705963
0.842759 , -1.6472107 , 3.715801
1.3790601 , -2.1068976 , 5.439626
4.673482 , -9.691729 , 12.143391
5.592855 , -18.08101 , 12.5264635
1.2641385 , -19.804836 , 11.9135475
0.5363012 , -10.342952 , 9.155427
3.064578 , -8.734048 , 8.465898
4.4819455 , -11.032481 , 5.8226986
3.6774938 , -11.453861 , 9.959879
7.201759 , -15.399506 , -2.1452048
2.4899697 , -8.42759 , -1.9536686
2.681506 , -5.4779334 , -4.0222588
2.7964275 , -5.0182467 , 0.80445176
-2.0685902 , -9.921572 , -6.205771
0.15322891 , -9.730036 , -3.715801
0.19153613 , -10.457873 , -1.5705963
-1.9153614 , -12.756307 , -2.2984335
0.076614454 , -11.87524 , -0.38307226
0.8810662 , -8.695741 , 0.49799395
1.1109096 , -7.5082164 , 0.076614454
0.6895301 , -8.963891 , -0.842759
-1.1492168 , -10.189722 , -0.038307227
-1.7621324 , -10.840945 , 1.1875241
-1.6472107 , -10.036493 , 1.5705963
0.9576807 , -7.201759 , 4.7500963
1.6089035 , -6.7803793 , 1.7238252
1.4556746 , -6.4739213 , -3.9839516
0.6895301 , -7.929596 , -5.363012
-0.7661445 , -10.381259 , -2.719813
-2.681506 , -11.415554 , -0.45968673
-3.86903 , -11.224017 , 3.217807
-0.7278373 , -11.33894 , 0.2681506
1.9919758 , -12.488156 , -1.4173675
2.4516625 , -13.062764 , -1.340753
1.6472107 , -12.717999 , -1.5705963
0.6895301 , -12.947843 , -0.6895301
-0.842759 , -13.330915 , 0.34476504
-3.217807 , -14.595054 , 0.7661445
-4.4436383 , -16.203957 , 0.91937345
-3.0262709 , -14.709975 , -0.15322891
-1.1109096 , -12.258312 , -0.5363012
1.532289 , -9.461885 , 0.5363012
3.9073372 , -9.653421 , 1.1492168
2.6048915 , -15.361198 , -2.4899697
4.1371803 , -16.778566 , -1.685518
4.0222588 , -15.361198 , -0.19153613
1.4939818 , -13.790602 , -0.34476504
2.1452048 , -12.411542 , -4.3287168
-0.11492168 , -10.726024 , -4.5202527
-3.3327289 , -9.5385 , 1.2641385
-1.9153614 , -9.615114 , -0.7278373
-1.340753 , -8.121132 , -3.217807
-0.7661445 , -5.746084 , -2.681506
-0.30645782 , -3.7924154 , -1.9919758
0.842759 , -2.1452048 , -1.0726024
1.7238252 , -1.1492168 , -0.6512229
2.719813 , -0.9959879 , -0.34476504
1.685518 , -1.6089035 , 0.30645782
1.0726024 , -2.528277 , 4.4819455
2.030283 , -3.7924154 , 8.236053
2.719813 , -7.3166804 , 12.832921
3.064578 , -17.046717 , 11.415554
0.5363012 , -14.403518 , 10.419566
0.34476504 , -11.568783 , 9.576807
1.4173675 , -9.11712 , 8.504205
5.746084 , -8.504205 , 6.4739213
3.6774938 , -9.959879 , 9.002198
2.834735 , -12.066776 , 11.760319
4.405331 , -15.514427 , 5.554548
1.532289 , -7.699753 , -1.4939818
3.7541082 , -4.7884035 , -1.1492168
1.1875241 , -4.9416323 , 2.2601264
0.5363012 , -9.193734 , -6.397307
1.7621324 , -11.070788 , -2.9113493
-0.076614454 , -12.143391 , -0.7278373
-2.030283 , -12.258312 , -1.3790601
0.7278373 , -10.955867 , -1.6089035
1.685518 , -8.695741 , 0.22984336
2.4899697 , -6.6271505 , 0.5746084
2.2984335 , -6.895301 , 0.5363012
-1.7621324 , -12.143391 , -0.6512229
-2.6048915 , -11.990162 , 0.80445176
-1.8387469 , -9.653421 , 2.566584
-0.8810662 , -7.5465236 , 2.3750482
1.7238252 , -7.1251445 , 3.9456444
1.532289 , -6.8186865 , 1.532289
0.842759 , -6.8569937 , -3.064578
0.5363012 , -9.883265 , -3.7924154
-0.11492168 , -11.224017 , -1.1875241
-1.4939818 , -11.377247 , 1.2258313
-3.0262709 , -11.224017 , 3.4859576
0.34476504 , -11.224017 , -0.61291564
2.2601264 , -11.645397 , -1.685518
1.8004397 , -12.679692 , -1.2258313
0.4213795 , -12.603078 , -0.6512229
-1.0342951 , -14.824897 , -0.30645782
-2.6048915 , -13.867216 , 1.3790601
-4.903325 , -14.365211 , 2.6431987
-5.209783 , -14.633361 , 2.719813
-1.1875241 , -13.982138 , -0.4213795
2.2984335 , -10.036493 , 0.038307227
5.3247046 , -8.542512 , -1.3024458
4.213795 , -12.794614 , -4.1371803
4.865018 , -17.468096 , -2.2601264
4.2521024 , -15.591042 , 0.61291564
2.6048915 , -14.173674 , 3.217807
2.7581203 , -14.097059 , -1.0726024
0.6895301 , -11.87524 , -8.159439
-3.3327289 , -11.147403 , -1.4173675
-4.098873 , -9.346964 , 1.685518
-1.5705963 , -6.2823853 , -3.371036
-0.80445176 , -4.7884035 , -3.371036
-0.22984336 , -2.873042 , -1.6089035
0.61291564 , -1.532289 , -1.3790601
2.183512 , -0.9576807 , -1.340753
2.336741 , -0.91937345 , -0.6895301
1.8387469 , -1.4939818 , 0.6512229
1.7238252 , -3.1794999 , 5.439626
2.719813 , -5.3247046 , 9.5385
2.6431987 , -9.653421 , 14.863204
5.707777 , -16.16565 , 12.564771
1.7621324 , -11.60709 , 8.695741
2.030283 , -10.496181 , 9.80665
3.3327289 , -11.951855 , 10.266336
4.175488 , -14.633361 , 9.346964
0.19153613 , -16.816874 , 12.717999
-2.681506 , -9.80665 , -4.711789
2.2218192 , 0.80445176 , -6.244078
10.879252 , 1.2641385 , 0.61291564
-3.4476504 , -9.346964 , -0.91937345
-1.8004397 , -9.730036 , -5.93762
0.5746084 , -12.334928 , -1.4556746
-3.715801 , -11.568783 , 0.5363012
-2.1452048 , -10.572795 , -1.3790601
0.076614454 , -10.036493 , -1.532289
1.3024458 , -8.695741 , -0.9576807
2.3750482 , -6.8569937 , -1.1492168
0.9576807 , -8.695741 , -0.5746084
-0.7278373 , -10.496181 , 0.15322891
-2.528277 , -13.024457 , 0.2681506
-1.7621324 , -9.385271 , 1.6089035
0.38307226 , -7.0485296 , 0.5363012
2.4133554 , -7.0485296 , 1.4939818
2.873042 , -7.3549876 , 3.217807
1.0342951 , -7.6231384 , -0.4213795
-0.038307227 , -7.469909 , -4.213795
0.15322891 , -7.6231384 , -6.167464
1.0342951 , -10.572795 , -1.7238252
-0.49799395 , -11.224017 , 1.4173675
-1.7238252 , -11.990162 , 5.0182467
-1.2258313 , -12.334928 , 4.673482
-1.4939818 , -11.87524 , -2.873042
-1.5705963 , -13.292608 , -2.6048915
-0.61291564 , -14.441825 , -0.842759
-1.5705963 , -13.637373 , 1.3024458
-4.098873 , -15.7825775 , -0.038307227
-3.1028855 , -14.78659 , 0.30645782
-1.2258313 , -14.748282 , 0.38307226
1.0726024 , -12.756307 , 0.4213795
6.129156 , -9.844957 , -0.30645782
5.66947 , -13.9438305 , -4.405331
4.213795 , -17.391481 , -3.9073372
4.9416323 , -14.78659 , 0.45968673
3.5242648 , -13.790602 , 1.1875241
2.9496565 , -13.330915 , 0.61291564
2.183512 , -12.143391 , 0.15322891
-3.0262709 , -10.955867 , -3.9073372
-4.903325 , -9.500193 , 0.6895301
-3.9839516 , -8.082825 , -1.1875241
-2.336741 , -6.6271505 , -3.0262709
0.4213795 , -4.55856 , -1.532289
1.1875241 , -2.681506 , -1.2641385
2.2601264 , -1.0342951 , -1.8770541
2.3750482 , -0.2681506 , -1.9536686
1.2641385 , -0.6895301 , 0.91937345
0.30645782 , -0.842759 , 2.7964275
0.15322891 , -1.2641385 , 4.673482
3.6008794 , -8.121132 , 13.101071
5.899313 , -16.970102 , 15.667656
4.367024 , -19.804836 , 13.177686
-0.9576807 , -19.191921 , 10.649409
4.060566 , -8.0445175 , 7.469909
5.2480903 , -9.461885 , 5.746084
3.1411927 , -8.887277 , 6.933608
1.3790601 , -14.441825 , 12.756307
3.1411927 , -10.457873 , -0.80445176
4.711789 , -4.9416323 , -2.4133554
1.685518 , -5.5162406 , 1.3790601
-2.0685902 , -8.082825 , -5.171476
0.19153613 , -9.308656 , -6.205771
-0.6895301 , -11.300632 , -1.4556746
-1.9153614 , -12.29662 , -1.4939818
-1.0726024 , -12.794614 , -0.2681506
0.19153613 , -10.764331 , 0.11492168
0.9959879 , -7.1634517 , -0.19153613
0.8810662 , -7.929596 , -0.38307226
-0.15322891 , -9.193734 , 0.2681506
-1.4939818 , -10.342952 , 0.7661445
-0.9576807 , -9.346964 , 1.4939818
0.6512229 , -7.929596 , 5.439626
1.1492168 , -7.0485296 , 4.4436383
1.8004397 , -6.933608 , -6.205771
1.6089035 , -8.121132 , -6.090849
0.30645782 , -9.768343 , -3.2561142
-1.7238252 , -10.649409 , -0.5746084
-4.060566 , -10.802638 , 4.098873
1.3790601 , -12.028469 , -1.9153614
1.8387469 , -13.177686 , -1.3790601
0.11492168 , -12.220005 , -0.61291564
-0.11492168 , -13.139379 , -1.2641385
-1.5705963 , -14.518439 , 0.038307227
-4.367024 , -14.671668 , 1.4173675
-5.209783 , -15.47612 , 2.566584
-4.0222588 , -17.353174 , 0.9959879
1.6089035 , -10.764331 , -0.6512229
4.405331 , -7.8912888 , -0.45968673
5.4779334 , -9.80665 , -3.217807
2.2218192 , -15.05474 , -4.2904096
4.711789 , -16.4338 , -0.34476504
3.7541082 , -14.78659 , 2.4516625
3.3327289 , -14.020445 , 3.1028855
1.7238252 , -11.33894 , -1.1875241
-0.34476504 , -10.381259 , -7.240066
-4.2904096 , -9.653421 , -2.183512
-4.596867 , -8.848969 , 1.1109096
-1.4939818 , -5.899313 , -3.9073372
-0.38307226 , -4.060566 , -1.7238252
0.5746084 , -2.7581203 , -1.1109096
1.0342951 , -1.8387469 , -1.2641385
2.1452048 , -0.8810662 , -1.1875241
1.5705963 , -1.2258313 , -0.19153613
0.9959879 , -1.340753 , 1.9153614
0.2681506 , -1.8387469 , 4.098873
2.834735 , -5.209783 , 9.883265
5.746084 , -12.679692 , 12.717999
7.393295 , -19.804836 , 13.215993
-1.7238252 , -14.901511 , 8.848969
-0.61291564 , -6.895301 , 9.11712
0.15322891 , -2.030283 , 7.699753
3.4859576 , -3.715801 , 6.4739213
0.7278373 , -12.143391 , 4.6351743
2.681506 , -13.828909 , 8.465898
6.7803793 , -19.6133 , 4.2904096
3.4859576 , -16.625336 , -1.9919758
3.3327289 , -2.6048915 , -1.4173675
1.0726024 , -4.7500963 , -2.030283
-0.842759 , -6.6654577 , -5.746084
-0.45968673 , -7.5082164 , -4.405331
-1.3024458 , -11.60709 , -2.6048915
-1.2258313 , -11.224017 , -2.2218192
-0.22984336 , -11.530476 , -2.2984335
-0.6512229 , -14.250289 , -1.3024458
-0.5746084 , -11.262324 , 0.9959879
-0.49799395 , -7.8912888 , 2.566584
-0.4213795 , -6.3206925 , 2.6048915
0.91937345 , -7.5465236 , 1.2641385
0.8810662 , -8.274361 , 2.1068976
0.5363012 , -8.504205 , 0.038307227
0.49799395 , -7.5848308 , -3.5242648
1.340753 , -8.848969 , -2.4133554
0.80445176 , -9.730036 , -0.9959879
-1.3024458 , -10.228029 , 0.5746084
-2.9113493 , -11.18571 , 1.7621324
-0.38307226 , -11.18571 , -0.38307226
2.1452048 , -11.798626 , -1.3024458
1.6089035 , -12.181698 , 0.19153613
-1.685518 , -13.752295 , -1.1875241
-1.1492168 , -15.667656 , -2.030283
-0.9959879 , -14.441825 , -0.5746084
-1.9536686 , -13.177686 , 0.7661445
-3.064578 , -15.131354 , 2.2601264
-1.6089035 , -15.552734 , 0.4213795
0.842759 , -12.5264635 , -0.5746084
3.6008794 , -8.887277 , -0.15322891
2.7581203 , -13.67568 , -3.9456444
2.030283 , -16.510414 , -2.566584
4.405331 , -16.778566 , -0.8810662
3.715801 , -14.78659 , 1.4556746
2.9496565 , -14.326903 , 1.9536686
1.7238252 , -13.062764 , -3.4859576
-0.38307226 , -10.726024 , -7.1251445
-4.175488 , -7.929596 , 1.7621324
-2.2984335 , -7.086837 , -0.7278373
-1.3790601 , -6.588843 , -3.4859576
-1.4173675 , -5.631162 , -1.2258313
0.5746084 , -2.528277 , -1.4173675
1.4939818 , -1.9153614 , -0.5746084
2.2984335 , -1.340753 , -0.5746084
1.9919758 , -1.5705963 , -0.30645782
0.91937345 , -2.2601264 , 2.1068976
1.1109096 , -2.2601264 , 3.7924154
2.4516625 , -3.6774938 , 6.205771
4.1371803 , -7.5848308 , 9.346964
3.371036 , -19.804836 , 12.181698
-1.8004397 , -19.115307 , 12.105083
-0.7278373 , -12.220005 , 10.419566
2.7581203 , -8.274361 , 6.0142345
2.0685902 , -10.955867 , 5.631162
-1.0342951 , -13.254301 , 10.036493
-2.528277 , -18.579004 , 11.109096
4.5202527 , -9.11712 , -5.592855
4.9799395 , -2.2601264 , -7.699753
6.205771 , -2.030283 , -0.7278373
1.9153614 , -4.4819455 , 1.7238252
-0.5746084 , -8.925584 , -5.401319
0.30645782 , -10.649409 , -2.7964275
-0.91937345 , -11.568783 , -1.685518
-1.3024458 , -10.91756 , -0.45968673
0.11492168 , -10.994174 , -0.11492168
0.15322891 , -11.109096 , -0.7278373
-0.5363012 , -10.994174 , -1.532289
-2.1452048 , -9.078813 , 1.4173675
-1.6089035 , -8.312668 , 2.2601264
-0.34476504 , -8.274361 , 0.9959879
0.91937345 , -7.699753 , 1.4556746
1.5705963 , -7.086837 , -1.1492168
1.4173675 , -7.431602 , -4.0222588
1.0342951 , -8.121132 , -4.2521024
0.8810662 , -9.002198 , -2.9496565
-1.3024458 , -10.228029 , 0.80445176
-2.4133554 , -10.764331 , 3.1794999
-1.9536686 , -12.832921 , 2.9496565
-0.34476504 , -13.254301 , 0.38307226
-0.6895301 , -12.5264635 , -1.0726024
-0.6512229 , -13.752295 , -1.7621324
-0.38307226 , -14.365211 , -1.5705963
-1.9153614 , -14.211981 , 0.30645782
-3.0262709 , -14.978126 , 1.4556746
-2.2601264 , -16.931795 , 0.8810662
-0.38307226 , -14.824897 , 0.0
4.9416323 , -8.389283 , 0.7278373
5.631162 , -10.266336 , -1.2258313
2.4899697 , -14.518439 , -3.0262709
2.9113493 , -16.663643 , -2.3750482
3.2561142 , -14.097059 , 1.2641385
2.7581203 , -13.560759 , 1.8004397
2.566584 , -12.449849 , 0.2681506
1.8004397 , -11.262324 , -4.2521024
-2.4133554 , -8.274361 , 0.2681506
-2.6048915 , -8.274361 , 0.9959879
-1.9536686 , -8.504205 , -1.5705963
-1.6089035 , -5.592855 , -1.4556746
0.076614454 , -4.098873 , -2.4133554
0.6512229 , -2.9879637 , -1.9153614
1.2641385 , -1.8770541 , -0.8810662
1.7621324 , -0.9576807 , 0.22984336
1.3790601 , -1.1492168 , 1.6472107
0.9959879 , -1.1875241 , 3.9073372
1.2258313 , -1.9919758 , 6.8186865
5.8226986 , -12.564771 , 13.445837
7.086837 , -19.804836 , 14.403518
0.076614454 , -19.804836 , 10.036493
-0.5746084 , -13.982138 , 8.236053
3.2561142 , -2.2984335 , 7.1251445
3.7541082 , -8.312668 , 5.133168
1.4939818 , -11.722012 , 6.0525417
6.8186865 , -17.659632 , 4.0222588
3.1411927 , -16.395493 , -0.7278373
1.8004397 , -6.8569937 , -5.133168
1.1492168 , -5.5162406 , -0.842759
-0.9576807 , -8.082825 , -5.4779334
-0.45968673 , -10.381259 , -2.719813
-2.4516625 , -12.220005 , -2.4133554
-2.6431987 , -14.020445 , -2.183512
-0.038307227 , -12.794614 , -0.61291564
1.340753 , -8.236053 , 0.842759
1.8004397 , -7.929596 , 0.30645782
1.1875241 , -8.848969 , -0.2681506
-0.5363012 , -9.385271 , -0.9959879
-1.7238252 , -8.887277 , 1.4173675
-0.22984336 , -8.504205 , 3.0262709
0.91937345 , -7.469909 , 3.4859576
1.685518 , -6.3206925 , 0.34476504
1.6472107 , -7.086837 , -5.0182467
1.4173675 , -9.308656 , -4.3287168
0.19153613 , -10.840945 , -2.030283
-3.371036 , -10.955867 , 3.4476504
-3.1411927 , -11.032481 , 3.4476504
-0.2681506 , -12.181698 , 0.49799395
0.91937345 , -12.679692 , -0.6895301
-0.19153613 , -13.599066 , -2.528277
0.45968673 , -15.016433 , -2.2601264
-0.6895301 , -13.828909 , -0.15322891
-3.1028855 , -13.67568 , 0.4213795
-3.5625722 , -15.629349 , 0.6512229
-1.7238252 , -15.974113 , 0.22984336
0.19153613 , -12.832921 , 0.91937345
2.3750482 , -9.768343 , 1.3024458
4.1371803 , -11.377247 , -3.7541082
1.7238252 , -15.514427 , -4.367024
3.0262709 , -16.357185 , -2.6431987
3.715801 , -13.484144 , 2.0685902
2.7964275 , -13.139379 , 1.2641385
2.2984335 , -12.220005 , -0.11492168
0.6512229 , -11.530476 , -3.7541082
-4.5202527 , -9.461885 , -0.038307227
-3.9839516 , -8.542512 , 0.5363012
-3.064578 , -8.121132 , -3.0262709
-1.9536686 , -7.1634517 , -2.6431987
0.5363012 , -3.4476504 , -1.7238252
1.6472107 , -1.8770541 , -1.8004397
2.6048915 , -0.842759 , -1.685518
2.6048915 , -0.61291564 , -1.2258313
1.1492168 , -1.0726024 , 0.9959879
0.7278373 , -1.1109096 , 2.9496565
1.3790601 , -2.681506 , 5.2480903
4.673482 , -14.135366 , 12.373235
4.7884035 , -19.804836 , 14.250289
-1.8387469 , -19.804836 , 13.177686
-1.9536686 , -13.560759 , 9.883265
2.0685902 , -2.9113493 , 6.5122285
3.5242648 , -8.848969 , 5.0182467
1.2258313 , -12.220005 , 3.9456444
0.4213795 , -14.211981 , 9.155427
4.3287168 , -17.238253 , -1.6089035
2.4516625 , -5.861006 , -6.5505357
4.9799395 , -1.6472107 , -2.873042
4.2521024 , -3.2561142 , 0.5746084
-1.0726024 , -8.695741 , -4.8267107
-0.45968673 , -10.419566 , -3.4859576
-1.6089035 , -12.411542 , -2.9496565
-0.2681506 , -11.262324 , -1.1109096
1.1875241 , -10.726024 , -0.7278373
1.0726024 , -10.726024 , -0.6512229
0.2681506 , -10.572795 , -0.038307227
-2.1452048 , -9.80665 , 0.91937345
-2.6431987 , -9.155427 , 1.685518
-1.3024458 , -8.963891 , 1.0342951
0.45968673 , -7.967903 , 1.2641385
2.1452048 , -6.742072 , 1.1109096
1.7238252 , -6.588843 , -3.371036
1.1109096 , -6.742072 , -5.3247046
0.80445176 , -7.8912888 , -4.6351743
-0.91937345 , -11.300632 , -0.842759
-2.719813 , -11.18571 , 1.4173675
-3.7924154 , -11.453861 , 3.3327289
-0.91937345 , -12.947843 , 1.0342951
-0.61291564 , -12.334928 , 0.2681506
0.30645782 , -12.947843 , -0.9576807
1.5705963 , -13.9438305 , -1.7238252
-0.30645782 , -13.177686 , -0.9959879
-3.1794999 , -14.173674 , -0.30645782
-4.098873 , -14.901511 , 1.340753
-3.0262709 , -16.357185 , 1.1492168
2.681506 , -9.730036 , 0.45968673
5.439626 , -8.274361 , 0.34476504
4.405331 , -11.18571 , -2.681506
1.340753 , -15.591042 , -3.4476504
4.903325 , -16.089035 , -0.30645782
3.6391866 , -14.441825 , 1.4556746
2.2984335 , -13.982138 , 0.5746084
-0.22984336 , -11.760319 , -2.7964275
-2.336741 , -9.883265 , -3.7924154
-3.371036 , -8.504205 , 0.19153613
-2.7964275 , -8.00621 , -1.0342951
-1.340753 , -6.3589997 , -1.6089035
-0.6895301 , -5.8226986 , -1.7238252
0.5746084 , -3.6391866 , -2.1452048
1.6089035 , -1.9919758 , -1.6472107
2.7581203 , -0.6512229 , -0.80445176
2.030283 , -0.91937345 , 0.34476504
1.1492168 , -1.3024458 , 1.9536686
0.7278373 , -1.4556746 , 3.7924154
3.4093432 , -6.5122285 , 10.151415
5.171476 , -14.135366 , 13.637373
5.2480903 , -19.804836 , 13.599066
-0.80445176 , -13.67568 , 9.193734
0.45968673 , -6.3589997 , 9.002198
3.1028855 , -3.5242648 , 7.5082164
4.711789 , -9.270349 , 5.631162
2.528277 , -13.369223 , 7.201759
5.363012 , -16.85518 , 5.899313
3.7541082 , -16.089035 , 1.6089035
0.4213795 , -7.929596 , -3.9073372
1.7621324 , -4.5202527 , -1.6089035
0.49799395 , -6.8569937 , -4.55856
0.61291564 , -8.350976 , -4.405331
0.45968673 , -9.730036 , -3.4093432
-1.9153614 , -12.679692 , -2.2601264
-0.6895301 , -12.564771 , -1.6089035
0.6512229 , -11.147403 , -0.8810662
0.8810662 , -10.0748005 , 0.22984336
-0.19153613 , -10.189722 , -0.2681506
-1.2258313 , -9.80665 , 0.19153613
-1.5705963 , -9.002198 , 2.030283
0.2681506 , -8.0445175 , 2.3750482
0.9959879 , -6.9719152 , 4.060566
1.1492168 , -6.703765 , 1.9153614
0.80445176 , -6.742072 , -3.715801
0.0 , -8.389283 , -4.3287168
-0.19153613 , -9.844957 , -2.4899697
-1.340753 , -11.33894 , -0.38307226
-2.9496565 , -11.18571 , 2.336741
-2.0685902 , -11.760319 , 1.8004397
0.5746084 , -13.254301 , -0.5746084
1.2641385 , -13.254301 , -0.7278373
1.3790601 , -13.828909 , -0.91937345
1.1492168 , -13.828909 , -0.076614454
-1.6089035 , -13.254301 , 0.5363012
-4.6351743 , -14.480132 , 1.3790601
-4.3287168 , -15.093047 , 1.8770541
-2.2601264 , -14.058752 , -0.038307227
0.80445176 , -10.572795 , -0.4213795
3.86903 , -9.232041 , -1.9536686
2.2601264 , -16.242264 , -3.4859576
3.5625722 , -16.663643 , -1.7238252
3.5625722 , -14.709975 , 0.4213795
2.4133554 , -13.560759 , 2.2218192
1.3790601 , -14.288596 , 0.038307227
0.49799395 , -12.564771 , -1.1109096
-1.6089035 , -10.764331 , -4.7500963
-4.0222588 , -9.002198 , -1.0342951
-2.7581203 , -7.1634517 , -2.6431987
-1.7621324 , -5.93762 , -2.0685902
-0.4213795 , -4.4819455 , -1.6472107
1.9153614 , -1.3790601 , -2.3750482
3.1794999 , -0.6895301 , -1.8004397
3.371036 , -0.6895301 , -1.8387469
2.336741 , -0.7661445 , -0.7278373
1.3024458 , -1.4556746 , 3.4093432
2.2601264 , -3.217807 , 5.2480903
3.2944214 , -7.469909 , 8.504205
5.592855 , -15.20797 , 11.60709
-1.5705963 , -19.6133 , 13.67568
-1.8770541 , -11.645397 , 10.457873
-0.80445176 , -4.7500963 , 9.11712
1.0726024 , -10.572795 , 7.6614456
-2.566584 , -16.778566 , 13.254301
-1.8387469 , -19.804836 , 9.232041
5.133168 , -16.395493 , -4.5202527
10.342952 , 1.6089035 , -4.098873
7.5848308 , -0.2681506 , 4.5202527
-0.9959879 , -6.090849 , -3.86903
-0.2681506 , -10.457873 , -3.715801
-2.183512 , -13.139379 , -1.7238252
-2.873042 , -12.603078 , -2.030283
-1.8387469 , -11.33894 , -1.8004397
-0.5363012 , -11.760319 , -1.9536686
-0.8810662 , -11.530476 , -1.4939818
-0.38307226 , -9.691729 , -0.5746084
-0.7661445 , -8.772355 , 0.61291564
-0.61291564 , -9.002198 , 1.9536686
0.6895301 , -9.232041 , 1.2258313
1.532289 , -8.274361 , 2.3750482
1.3790601 , -7.3166804 , 2.2984335
0.49799395 , -5.8226986 , -3.715801
0.80445176 , -6.244078 , -4.5202527
1.340753 , -8.619126 , -3.6774938
1.340753 , -10.6877165 , -1.8770541
-2.4899697 , -10.6877165 , 3.4476504
-3.1411927 , -12.449849 , 4.596867
-1.8387469 , -13.254301 , 1.8770541
-0.91937345 , -12.98615 , -1.0342951
1.4939818 , -14.288596 , -2.566584
0.7278373 , -12.756307 , 0.22984336
-1.9153614 , -12.832921 , 0.9959879
-4.2521024 , -15.859192 , 1.4939818
-2.873042 , -15.7825775 , 0.6512229
-0.45968673 , -14.441825 , 0.2681506
3.1411927 , -10.381259 , 0.9959879
5.554548 , -11.990162 , -2.9113493
2.566584 , -17.27656 , -4.6351743
5.209783 , -17.621325 , -3.217807
6.2823853 , -15.514427 , -0.91937345
3.1411927 , -13.445837 , 2.1452048
2.528277 , -13.215993 , 2.2218192
0.6895301 , -12.29662 , -1.8004397
-2.2218192 , -10.840945 , -4.7500963
-3.4859576 , -8.810662 , -1.6472107
-3.217807 , -7.3166804 , -2.566584
-2.1452048 , -5.8226986 , -2.4899697
0.9959879 , -2.6048915 , -2.1452048
1.7621324 , -1.1109096 , -1.7621324
2.528277 , -0.2681506 , -1.6089035
2.681506 , -0.076614454 , -1.4939818
0.842759 , -0.6512229 , 1.9919758
0.19153613 , -1.0342951 , 4.5202527
0.7661445 , -2.336741 , 7.699753
3.217807 , -7.0485296 , 11.492168
5.9759274 , -19.804836 , 12.641385
-1.1109096 , -18.885464 , 9.998186
-0.038307227 , -10.764331 , 9.461885
1.340753 , -4.367024 , 8.772355
3.371036 , -10.91756 , 6.5122285
0.076614454 , -13.445837 , 9.155427
-0.30645782 , -17.27656 , 8.619126
2.4133554 , -9.883265 , -7.1251445
5.592855 , -2.7964275 , -4.1371803
5.094861 , -2.1068976 , 2.834735
-1.1875241 , -6.7803793 , -2.834735
-0.2681506 , -9.576807 , -3.371036
-0.80445176 , -11.224017 , -2.2218192
-1.8770541 , -11.798626 , -2.030283
0.80445176 , -10.726024 , -0.7278373
0.4213795 , -10.304645 , -0.6512229
-0.076614454 , -10.6877165 , -0.842759
-0.5746084 , -11.070788 , 0.0
-1.1109096 , -10.764331 , 0.076614454
-0.7278373 , -7.8529816 , 2.2218192
0.5363012 , -7.431602 , 2.0685902
1.7621324 , -7.8529816 , 3.1411927
1.2641385 , -6.933608 , 0.45968673
0.61291564 , -6.2823853 , -3.9839516
0.38307226 , -6.8186865 , -5.4779334
0.7278373 , -8.42759 , -4.8267107
-0.38307226 , -11.453861 , -0.4213795
-2.6048915 , -11.262324 , 2.336741
-3.6391866 , -11.951855 , 4.0222588
-1.7621324 , -13.637373 , 2.183512
-1.2641385 , -12.29662 , -0.6895301
-0.34476504 , -13.982138 , -1.9919758
0.2681506 , -15.20797 , -1.6472107
-0.22984336 , -14.595054 , -0.38307226
-3.3327289 , -14.633361 , 0.49799395
-3.1411927 , -17.046717 , 0.15322891
-1.3790601 , -14.633361 , 0.0
5.0182467 , -9.002198 , 0.34476504
5.363012 , -11.18571 , -2.336741
2.719813 , -15.820885 , -3.5242648
3.9839516 , -17.851168 , -2.681506
4.673482 , -14.058752 , 1.1109096
2.9879637 , -12.679692 , 2.4516625
1.5705963 , -12.028469 , 0.61291564
1.0342951 , -10.879252 , -2.2601264
-2.681506 , -8.734048 , -1.4939818
-3.0262709 , -9.040505 , -1.340753
-2.681506 , -9.193734 , -2.873042
-0.49799395 , -3.6774938 , -1.6089035
0.7661445 , -3.2944214 , -2.030283
1.0342951 , -1.9919758 , -2.1452048
2.1068976 , -0.2681506 , -1.4556746
1.7621324 , 0.38307226 , -0.076614454
1.1492168 , -0.19153613 , 2.1068976
1.0342951 , -1.5705963 , 4.8267107
1.4939818 , -3.86903 , 10.189722
6.933608 , -17.046717 , 13.484144
6.5505357 , -19.804836 , 10.649409
1.5705963 , -15.74427 , 9.883265
1.2258313 , -9.155427 , 9.270349
5.401319 , -7.3549876 , 6.090849
4.8267107 , -11.300632 , 5.8226986
4.5202527 , -13.254301 , 8.504205
5.66947 , -15.552734 , 4.55856
-0.5363012 , -9.691729 , -2.4133554
2.528277 , -5.094861 , -2.4516625
0.45968673 , -4.903325 , 0.8810662
-0.7278373 , -9.078813 , -5.133168
1.1109096 , -8.734048 , -2.9113493
0.91937345 , -9.730036 , -2.2218192
0.38307226 , -10.840945 , -2.4899697
-0.22984336 , -12.181698 , -3.715801
-0.61291564 , -14.748282 , -2.183512
-1.1109096 , -14.403518 , 0.2681506
-1.1492168 , -11.224017 , 2.1452048
0.61291564 , -7.086837 , 2.719813
0.6895301 , -6.4739213 , 2.183512
0.49799395 , -6.703765 , 1.1875241
0.7661445 , -7.5082164 , 0.6895301
0.6895301 , -7.201759 , -1.1875241
0.30645782 , -7.2783732 , -3.4859576
0.38307226 , -8.00621 , -3.2944214
0.61291564 , -10.419566 , -0.30645782
-0.91937345 , -10.726024 , 1.3024458
-2.6431987 , -10.342952 , 3.4476504
-2.9113493 , -10.266336 , 2.9113493
0.5746084 , -12.871228 , -1.1875241
0.30645782 , -13.215993 , -1.1492168
0.2681506 , -13.828909 , -1.9153614
