MagZ,MagY,MagX,Light,OrientZ,OrientX,OrientY,AccY,AccX,AccZ,GyroZ,GyroX,GyroY
NO-DATA,NO-DATA,NO-DATA,NO-DATA,NO-DATA,NO-DATA,NO-DATA,NO-DATA,NO-DATA,NO-DATA,NO-DATA,NO-DATA,NO-DATA,
-33.6,-14.46,16.92,NO-DATA,NO-DATA,NO-DATA,NO-DATA,NO-DATA,NO-DATA,NO-DATA,NO-DATA,NO-DATA,NO-DATA,
-33.78,-15.12,15.24,NO-DATA,NO-DATA,NO-DATA,NO-DATA,NO-DATA,NO-DATA,NO-DATA,NO-DATA,NO-DATA,NO-DATA,
-33.18,-15.54,14.5199995,NO-DATA,NO-DATA,NO-DATA,NO-DATA,NO-DATA,NO-DATA,NO-DATA,NO-DATA,NO-DATA,NO-DATA,
-33.3,-15.54,15.299999,NO-DATA,NO-DATA,NO-DATA,NO-DATA,NO-DATA,NO-DATA,NO-DATA,NO-DATA,NO-DATA,NO-DATA,
-33.36,-16.08,14.34,NO-DATA,NO-DATA,NO-DATA,NO-DATA,NO-DATA,NO-DATA,NO-DATA,NO-DATA,NO-DATA,NO-DATA,
-33.6,-16.14,14.099999,NO-DATA,NO-DATA,NO-DATA,NO-DATA,NO-DATA,NO-DATA,NO-DATA,NO-DATA,NO-DATA,NO-DATA,
-33.66,-17.1,13.08,NO-DATA,NO-DATA,NO-DATA,NO-DATA,NO-DATA,NO-DATA,NO-DATA,NO-DATA,NO-DATA,NO-DATA,
-34.02,-16.38,13.44,NO-DATA,-1.31459927143,222.579391429,-6.21473697143,NO-DATA,NO-DATA,NO-DATA,0.0,0.0,0.0,
-34.02,-16.38,13.44,NO-DATA,-1.31459927143,222.579391429,-6.21473697143,1.1109096,0.7661445,10.228029,0.0,0.0,0.0,
-34.02,-16.38,13.44,NO-DATA,-0.87213645,222.875765,-6.1794355,1.1109096,0.7661445,10.228029,0.0,0.0,0.0,
-34.26,-16.98,12.24,NO-DATA,-0.87213645,222.875765,-6.1794355,1.1109096,0.7661445,10.228029,0.0,0.0,0.0,
-34.26,-16.98,12.24,NO-DATA,-0.06259571,222.89313,-6.185648,1.1109096,0.9959879,9.500193,0.0,0.0,0.0,
-34.26,-16.98,12.24,NO-DATA,0.47919288,222.82478,-6.2131352,1.1109096,0.9959879,9.500193,0.0,0.0,0.0,
-34.92,-17.76,11.099999,NO-DATA,0.92444,222.66096,-6.3161545,1.1109096,0.9959879,9.500193,0.0,0.0,0.0,
-35.04,-18.24,10.74,NO-DATA,0.92444,222.66096,-6.3161545,1.1109096,0.9959879,9.500193,0.0,0.0,0.0,
-35.04,-18.24,10.74,NO-DATA,1.1214621,222.45749,-6.670537,1.6089035,0.5363012,9.959879,-0.341473665,0.198531205,-0.30787608,
-35.04,-18.24,10.74,NO-DATA,1.4175481,222.60686,-7.0349355,1.6089035,0.5363012,9.959879,-0.440128415,0.2587014325,-0.1808161135,
-35.28,-18.539999,9.96,NO-DATA,1.4175481,222.60686,-7.0349355,1.6089035,0.5363012,9.959879,-0.4605924,0.2687807,-0.07086037,
-35.28,-18.539999,9.96,NO-DATA,1.6368992,222.86661,-7.4453716,1.4939818,0.61291564,9.730036,-0.39156462,0.243124365,0.0305432635,
-35.28,-18.539999,9.96,NO-DATA,1.6695315,223.0232,-7.768961,1.4939818,0.61291564,9.730036,-0.293520745,0.2266310075,0.1676825075,
-35.28,-18.539999,9.96,NO-DATA,1.4865688,223.0396,-8.207236,2.1068976,0.5363012,9.500193,-0.2779436875,0.2645046475,0.2611449,
-35.28,-18.539999,9.96,NO-DATA,1.1569092,223.0783,-8.760303,1.9536686,-0.076614454,8.619126,-0.3787364575,0.2538145025,0.112093773,
-35.28,-18.539999,9.96,NO-DATA,1.0226132,223.21902,-9.130147,1.9536686,-0.076614454,8.619126,-0.436972273333,0.187739256667,-0.216653543333,
-35.76,-18.96,9.599999,NO-DATA,1.0226132,223.21902,-9.130147,1.9536686,-0.076614454,8.619126,-0.45448375,0.14049901,-0.29810223,
-35.76,-18.96,9.599999,NO-DATA,1.1278642,223.54698,-9.456577,1.3024458,0.30645782,9.883265,-0.440433845,0.0623082535,-0.09529498,
-35.76,-18.96,9.599999,NO-DATA,1.0871419,223.83406,-9.46649,1.3024458,0.30645782,9.883265,-0.31001411,-0.11942415375,0.0326812905,
-36.12,-18.539999,9.84,NO-DATA,0.9905303,223.89668,-9.171502,1.3024458,0.30645782,9.883265,-0.09987646625,-0.2406809075,0.09621127875,
-36.36,-18.72,10.0199995,NO-DATA,0.80938876,223.73116,-8.930647,1.3024458,0.30645782,9.883265,-0.00794124835,-0.1178969925,0.16523905,
-36.239998,-18.84,10.139999,NO-DATA,0.6151107,223.55865,-8.896603,1.3024458,0.30645782,9.883265,-0.02168571575,0.01618792875,0.1102611785,
-36.239998,-18.84,10.139999,NO-DATA,0.4580997,223.38121,-8.999367,1.8004397,-0.076614454,9.270349,-0.04948008425,0.001832595,-0.07574728725,
-36.239998,-18.84,10.139999,NO-DATA,0.545401,223.31488,-9.053846,1.9919758,0.076614454,9.959879,-0.050090951,-0.122173046667,-0.18773925,
-36.239998,-18.84,10.139999,NO-DATA,0.78110904,223.30382,-8.917683,1.9153614,0.30645782,10.457873,-0.083688539,-0.2131919725,-0.1127046404,
-36.239998,-18.84,10.139999,NO-DATA,0.8083082,223.3022,-8.7284565,1.8004397,0.22984336,10.0748005,-0.08827002975,-0.10629055225,0.1499674185,
-36.239998,-18.84,10.139999,NO-DATA,0.6654679,223.26836,-8.7123575,1.8387469,0.19153613,9.193734,-0.02138028375,0.09376781575,0.05833763025,
-36.239998,-18.84,10.139999,NO-DATA,0.66703725,223.17955,-8.934359,2.1068976,0.30645782,9.768343,-0.02840523375,0.21288654,-0.15027285,
-36.239998,-18.84,10.139999,NO-DATA,0.89986575,223.19656,-9.270923,2.030283,0.4213795,10.113108,-0.13500122,0.11239920475,-0.1753183275,
-36.239998,-18.84,10.139999,NO-DATA,1.1190677,223.39378,-9.432613,1.8387469,0.38307226,9.883265,-0.186110276667,-0.0044796782,-0.0606792816667,
-36.239998,-18.84,10.139999,NO-DATA,1.1846689,223.61739,-9.411157,1.685518,0.30645782,9.500193,-0.1524108825,-0.07757988575,-0.07238753,
-36.239998,-18.84,10.139999,NO-DATA,1.2669127,223.73027,-9.349869,1.7621324,0.38307226,9.500193,-0.06047566,-0.031764991925,-0.052534409,
-36.239998,-18.84,10.139999,NO-DATA,1.3487129,223.78088,-9.361177,2.1068976,0.34476504,9.615114,-0.062308256,0.0397062405,-0.0409279715,
-36.239998,-18.84,10.139999,NO-DATA,1.4231946,223.86354,-9.488158,2.1068976,0.34476504,9.615114,-0.1750128925,0.0675006095,-0.003054326,
-36.239998,-18.84,10.139999,NO-DATA,1.4154091,224.06615,-9.6259165,1.685518,0.11492168,9.5385,-0.19242255,0.1114829065,0.06017022575,
-36.18,-17.64,9.78,NO-DATA,1.27823415,224.303145,-9.8271465,1.685518,0.11492168,9.5385,-0.12675454,0.15027285,-0.0045814895,
-36.18,-17.64,9.78,NO-DATA,1.27823415,224.303145,-9.8271465,1.7238252,0.11492168,9.959879,-0.058235819,0.123802024667,-0.0272853146667,
-36.18,-17.64,9.78,NO-DATA,1.2710472,224.3883,-10.024825,1.8770541,0.19153613,10.113108,-0.07116580125,0.0696386365,0.0616973885,
-36.18,-17.64,9.78,NO-DATA,1.1746795,224.42096,-10.104452,1.7621324,0.15322891,9.385271,-0.10598512,0.1062905525,0.071165801,
-36.54,-17.76,9.36,NO-DATA,1.0877745,224.48392,-10.246806,1.7621324,0.15322891,9.385271,-0.071471234,0.1899790925,-0.04123340525,
-36.54,-17.76,9.36,NO-DATA,1.1979011,224.56031,-10.5540265,1.9536686,0.15322891,9.385271,-0.0620028235,0.14477506125,-0.112704639,
-36.48,-17.88,9.179999,NO-DATA,1.1979011,224.56031,-10.5540265,1.9536686,0.15322891,9.385271,-0.0855211316667,0.0456112723333,-0.0574213333333,
-36.42,-18.119999,9.24,NO-DATA,1.3040736,224.67155,-10.662718,1.9536686,0.15322891,9.385271,-0.095294979,0.019547688,0.0247400425,
-36.54,-18.119999,9.24,NO-DATA,1.2619857,224.7311,-10.68882,1.9536686,0.15322891,9.385271,-0.082772242,0.112704635,-0.0042760575,
-36.6,-18.18,9.3,NO-DATA,1.293027,224.7809,-10.850815,1.9536686,0.15322891,9.385271,-0.085521134,0.1554652075,-0.09285151775,
-36.54,-18.359999,9.36,NO-DATA,1.44854065,224.93688,-11.091695,1.9536686,0.15322891,9.385271,-0.15210545,0.07635815675,-0.09437868,
-36.48,-18.359999,9.3,NO-DATA,1.5054055,225.2032,-11.16241,1.9536686,0.15322891,9.385271,-0.195782305,0.02596177275,-0.0287106665,
-36.36,-18.48,9.3,NO-DATA,1.4114285,225.37474,-11.199985,1.9536686,0.15322891,9.385271,-0.19517144,0.02993239625,0.076663589,
-36.3,-18.42,9.36,NO-DATA,1.4114285,225.37474,-11.199985,1.9536686,0.15322891,9.385271,-0.204028996667,0.0329867226667,0.105068822,
-36.48,-18.42,9.3,NO-DATA,1.2658036,225.53293,-11.244704,1.9536686,0.15322891,9.385271,-0.18264871,0.090713489,0.00030543325,
-36.48,-18.359999,9.179999,NO-DATA,1.2744084,225.757065,-11.44936525,1.9536686,0.15322891,9.385271,-0.16890424,0.13836098,-0.06780603975,
-36.54,-18.359999,9.42,NO-DATA,1.2645295,226.04349,-11.6359825,1.9536686,0.15322891,9.385271,-0.240680905,0.06597344675,-0.00488692175,
-36.66,-18.48,9.24,NO-DATA,1.1731217,226.32158,-11.620601,1.9536686,0.15322891,9.385271,-0.279776275,-0.0290160995,0.02748893675,
-36.54,-18.48,9.42,NO-DATA,1.1776775,226.59515,-11.566092,1.9536686,0.15322891,9.385271,-0.2767219575,-0.04489859575,-0.06780604175,
-36.6,-18.24,9.42,NO-DATA,1.1776775,226.59515,-11.566092,1.9536686,0.15322891,9.385271,-0.283441483333,0.0118100626667,-0.137648303333,
-36.54,-18.119999,9.599999,NO-DATA,1.1776775,226.59515,-11.566092,1.9536686,0.15322891,9.385271,-0.283441483333,0.0118100626667,-0.137648303333,
-36.6,-18.119999,9.66,NO-DATA,1.29886895,227.042555,-11.6141225,1.9536686,0.11492168,9.461885,-0.3158173275,0.0968221425,-0.05589416965,
-36.6,-18.119999,9.66,NO-DATA,1.2354661,227.5207,-11.790162,1.9919758,0.076614454,9.308656,-0.3112358425,0.13988814,0.002748893575,
-36.6,-18.119999,9.66,NO-DATA,1.1891334,227.85533,-11.954106,1.9919758,0.076614454,9.308656,-0.2858849375,0.1337794925,-0.08063421325,
-36.6,-17.94,9.9,NO-DATA,1.1891334,227.85533,-11.954106,1.9919758,0.076614454,9.308656,-0.28038714,0.09162979,-0.1282817025,
-36.6,-17.94,9.9,NO-DATA,1.1891334,227.85533,-11.954106,2.2218192,0.15322891,9.576807,-0.30787608,0.0378736465,-0.13927728,
-36.6,-17.94,9.9,NO-DATA,1.322878,228.5886,-12.124049,2.2218192,0.15322891,9.576807,-0.36163223,-0.04764749,-0.08460483575,
-36.66,-17.64,10.0199995,NO-DATA,1.3055948,228.9183,-12.067922,2.2218192,0.15322891,9.576807,-0.38606682,-0.061086524,-0.004886922,
-36.66,-17.64,10.0199995,NO-DATA,1.3055948,228.9183,-12.067922,1.9536686,0.0,9.615114,-0.3933972,-0.02076942,0.05131268,
-36.66,-17.64,10.0199995,NO-DATA,1.1683758,229.36723,-12.0314665,1.9536686,0.0,9.615114,-0.369268035,0.0461203249,-0.00794124775,
-36.6,-17.52,10.32,NO-DATA,1.1683758,229.36723,-12.0314665,1.9536686,0.0,9.615114,-0.369268035,0.0461203249,-0.00794124775,
-36.6,-17.52,10.32,NO-DATA,1.142289,229.80025,-12.112437,2.0685902,0.11492168,9.500193,-0.329459983333,0.100996388,-0.130317918667,
-36.6,-17.52,10.32,NO-DATA,1.2176408,230.21136,-12.212924,2.0685902,0.11492168,9.500193,-0.3295618,0.05375614425,-0.12492194125,
-36.66,-17.52,10.32,NO-DATA,1.2176408,230.21136,-12.212924,2.0685902,0.11492168,9.500193,-0.3567453,0.002443461,-0.111177474,
-36.66,-17.52,10.32,NO-DATA,1.2693515,230.63908,-12.243593,2.1068976,0.15322891,9.615114,-0.384234235,-0.00244346105,-0.112399207,
-36.66,-17.52,10.32,NO-DATA,1.2975694,230.9922,-12.244576,2.1068976,0.15322891,9.615114,-0.3946189525,0.013744468375,-0.08277224,
-36.899998,-17.46,10.38,NO-DATA,1.2947837,231.45894,-12.261289,2.1068976,0.15322891,9.615114,-0.36936986,0.0370591576667,-0.0680096633333,
-36.84,-17.34,10.44,NO-DATA,1.2947837,231.45894,-12.261289,2.1068976,0.15322891,9.615114,-0.36936986,0.0370591576667,-0.0680096633333,
-36.84,-17.34,10.44,NO-DATA,1.2873949,231.90195,-12.306523,2.1452048,0.11492168,9.615114,-0.391361013333,0.0232128786667,-0.107919526667,
-36.84,-17.34,10.44,NO-DATA,1.3202848,232.38998,-12.334446,2.1452048,0.11492168,9.615114,-0.4245513525,0.02412917775,-0.1087340115,
-37.02,-17.46,10.32,NO-DATA,1.3202848,232.38998,-12.334446,2.1452048,0.11492168,9.615114,-0.42271876,0.040317107,-0.09407325,
-37.02,-17.46,10.32,NO-DATA,1.3291289,232.8859,-12.374277,2.1452048,0.076614454,9.385271,-0.40500365,0.0531452765,-0.133779485,
-37.02,-17.46,10.32,NO-DATA,1.3676316,233.24777,-12.419557,2.1452048,0.076614454,9.385271,-0.42149702,0.040927971,-0.1618792875,
-37.26,-17.16,10.44,NO-DATA,1.3676316,233.24777,-12.419557,2.1452048,0.076614454,9.385271,-0.43982297,0.02321288,-0.119729586,
-37.26,-17.16,10.44,NO-DATA,1.3676316,233.24777,-12.419557,1.9919758,-0.038307227,9.423578,-0.44348816,0.017104227,-0.0631227433333,
-37.26,-17.16,10.44,NO-DATA,1.4034373,234.2768,-12.480263,1.9919758,-0.038307227,9.423578,-0.4077525525,0.014049900625,-0.0876591635,
-37.559998,-16.98,10.62,NO-DATA,1.4034373,234.2768,-12.480263,1.9919758,-0.038307227,9.423578,-0.4077525525,0.014049900625,-0.0876591635,
-37.559998,-16.98,10.62,NO-DATA,1.401611,234.75842,-12.481936,2.183512,0.11492168,9.768343,-0.3885103,-0.0274889365,-0.1148426675,
-37.559998,-16.98,10.62,NO-DATA,1.4188142,235.23303,-12.444809,2.183512,0.11492168,9.768343,-0.39858957,-0.02015855225,-0.057726764,
-37.26,-16.859999,10.74,NO-DATA,1.4188142,235.23303,-12.444809,2.183512,0.11492168,9.768343,-0.39858957,-0.02015855225,-0.057726764,
-37.26,-16.859999,10.74,NO-DATA,1.3800468,235.5892,-12.436438,2.2218192,0.038307227,9.232041,-0.391768246667,0.0301360173333,-0.0871501083333,
-37.26,-16.859999,10.74,NO-DATA,1.374187,236.04796,-12.476272,2.2218192,0.038307227,9.232041,-0.39187006,0.0137444675,-0.13255776,
-37.26,-16.8,10.8,NO-DATA,1.374187,236.04796,-12.476272,2.2218192,0.038307227,9.232041,-0.42394048,-0.032986723,-0.103847094,
-37.26,-16.8,10.8,NO-DATA,1.374187,236.04796,-12.476272,2.2218192,0.15322891,9.615114,-0.467108286667,-0.0521271693333,-0.0798197283333,
-37.26,-16.8,10.8,NO-DATA,1.4034086,237.05954,-12.4428005,2.2218192,0.15322891,9.615114,-0.46273043,-0.0290161005,-0.06597344575,
-37.02,-16.32,10.8,NO-DATA,1.3737416,237.59131,-12.424038,2.2218192,0.15322891,9.615114,-0.4410447,0.01282817,-0.12217305,
-37.02,-16.32,10.8,NO-DATA,1.3737416,237.59131,-12.424038,2.2984335,0.11492168,9.461885,-0.4410447,0.01282817,-0.12217305,
-37.02,-16.32,10.8,NO-DATA,1.40405,237.99017,-12.441514,2.2984335,0.11492168,9.461885,-0.467922775,-0.030848695375,-0.1282817,
-36.78,-16.44,10.98,NO-DATA,1.40405,237.99017,-12.441514,2.2984335,0.11492168,9.461885,-0.467922775,-0.030848695375,-0.1282817,
-36.78,-16.44,10.98,NO-DATA,1.4222205,238.54669,-12.403828,2.0685902,0.11492168,9.5385,-0.500095,-0.122580294667,-0.0044796785,
-36.78,-16.44,10.98,NO-DATA,1.3136885,239.08505,-12.263136,2.0685902,0.11492168,9.5385,-0.484416145,-0.120951319,-0.01618792875,
-37.2,-15.839999,10.92,NO-DATA,1.3136885,239.08505,-12.263136,2.0685902,0.11492168,9.5385,-0.46670106,-0.07452556,-0.04642576,
-37.2,-15.839999,10.92,NO-DATA,1.3136885,239.08505,-12.263136,2.1452048,0.15322891,9.346964,-0.455705473333,-0.0346156956667,-0.0541633846667,
-37.2,-15.839999,10.92,NO-DATA,1.18002355,240.29815,-12.07923075,2.1452048,0.15322891,9.346964,-0.447764225,-0.015271631,-0.074830995,
-37.44,-15.299999,11.099999,NO-DATA,1.18002355,240.29815,-12.07923075,2.1452048,0.15322891,9.346964,-0.447764225,-0.015271631,-0.074830995,
-37.44,-15.299999,11.099999,NO-DATA,1.18002355,240.29815,-12.07923075,2.1068976,0.22984336,9.500193,-0.44593163,-0.0610865265,-0.099571035,
-37.44,-15.299999,11.099999,NO-DATA,1.1843013,241.01204,-12.016141,2.1068976,0.22984336,9.500193,-0.4269948025,-0.070860366,-0.1056796885,
-37.8,-15.24,11.28,NO-DATA,1.1843013,241.01204,-12.016141,2.1068976,0.22984336,9.500193,-0.4269948025,-0.070860366,-0.1056796885,
-37.8,-15.24,11.28,NO-DATA,1.217654,241.50693,-11.936137,2.2601264,0.49799395,9.959879,-0.468737266667,-0.0871501066667,-0.0415388349,
-37.8,-15.24,11.28,NO-DATA,1.1720017,242.03574,-11.839099,2.2601264,0.49799395,9.959879,-0.517402875,-0.135001215,0.07941248075,
-38.1,-14.46,11.28,NO-DATA,1.1720017,242.03574,-11.839099,2.2601264,0.49799395,9.959879,-0.5314528,-0.13805555,0.08674286,
-38.1,-14.46,11.28,NO-DATA,0.858376,243.02176,-11.583302,2.1068976,0.11492168,9.11712,-0.498873273333,-0.104661579667,0.0264708253333,
-38.1,-14.46,11.28,NO-DATA,0.8829052,243.54218,-11.533461,2.336741,0.34476504,9.346964,-0.426689365,-0.04276056775,-0.12308934575,
-38.1,-14.46,11.28,NO-DATA,0.8829052,243.54218,-11.533461,2.336741,0.34476504,9.346964,-0.410908693333,-0.0651589576667,-0.210137646667,
-37.8,-14.219999,11.88,NO-DATA,0.8829052,243.54218,-11.533461,2.336741,0.34476504,9.346964,-0.4166101,-0.111177474,-0.20647246,
-37.8,-14.219999,11.88,NO-DATA,0.8829052,243.54218,-11.533461,2.4516625,0.4213795,9.921572,-0.44511714,-0.15719599,-0.18651752,
-37.8,-14.219999,11.88,NO-DATA,1.2032053,244.60898,-11.307686,2.4516625,0.4213795,9.921572,-0.4804455175,-0.1997529325,-0.13194689125,
-37.92,-13.74,12.059999,NO-DATA,1.27369595,245.365385,-11.026074,2.4516625,0.4213795,9.921572,-0.420886145,-0.1490511175,-0.1001819,
-37.8,-13.38,12.059999,NO-DATA,1.27369595,245.365385,-11.026074,2.4516625,0.4213795,9.921572,-0.420886145,-0.1490511175,-0.1001819,
-37.8,-13.38,12.059999,NO-DATA,1.3786147,245.99924,-10.920418,2.3750482,0.49799395,9.998186,-0.34900767,-0.0191404448,-0.13276138,
-37.8,-13.38,12.059999,NO-DATA,1.4724115,246.44598,-10.965165,2.6431987,0.49799395,9.844957,-0.3521638175,0.0210748515,-0.12461651,
-37.8,-13.38,12.059999,NO-DATA,1.536332,246.92157,-11.031621,2.6431987,0.49799395,9.844957,-0.3857614025,0.0204639855,-0.10140362875,
-38.04,-13.139999,12.42,NO-DATA,1.536332,246.92157,-11.031621,2.6431987,0.49799395,9.844957,-0.42394048,0.0036651916,-0.09040806,
-38.04,-13.139999,12.42,NO-DATA,1.536332,246.92157,-11.031621,2.4133554,0.4213795,9.576807,-0.45081854,-0.02443461,-0.081855945,
-38.04,-13.139999,12.42,NO-DATA,1.56024855,247.685545,-11.0513725,2.183512,0.34476504,9.615114,-0.4670064825,-0.04459316275,-0.0800233485,
-38.04,-13.139999,12.42,NO-DATA,1.5576295,248.50331,-11.04521,2.183512,0.34476504,9.615114,-0.47311514,-0.005497786875,-0.0733038285,
-38.34,-12.179999,12.12,NO-DATA,1.5576295,248.50331,-11.04521,2.183512,0.34476504,9.615114,-0.47311514,-0.005497786875,-0.0733038285,
-38.34,-12.179999,12.12,NO-DATA,1.5580642,249.12032,-11.152076,2.1068976,0.34476504,9.155427,-0.48380528,0.09896017,-0.0993674133333,
-38.34,-12.179999,12.12,NO-DATA,1.6516045,249.74135,-11.351166,2.3750482,0.45968673,9.423578,-0.4703662375,0.15454891,-0.1646281825,
-38.46,-12.059999,12.0,NO-DATA,1.6902815,250.43538,-11.587225,2.6431987,0.45968673,9.232041,-0.563625026667,0.171042263333,-0.114435421667,
-38.46,-11.82,11.88,NO-DATA,1.7027376,251.08832,-11.751539,2.3750482,0.49799395,9.078813,-0.734870875,0.1142318,-0.156992365,
-38.46,-11.82,11.88,NO-DATA,1.8472002,252.15195,-11.9448185,2.1452048,0.61291564,9.040505,-0.7861835775,0.1304197275,-0.295353345,
-38.64,-11.4,11.58,NO-DATA,2.305346,252.966,-12.165805,2.3750482,0.5363012,9.5385,-0.44389542,0.15801048,-0.534303456667,
-38.64,-11.4,11.58,NO-DATA,3.0393038,253.48135,-12.264935,2.6048915,0.4213795,9.730036,-0.2070833175,0.04337143175,-0.6811147275,
-38.82,-11.28,11.46,NO-DATA,3.7073557,253.88013,-12.195164,2.183512,0.80445176,10.840945,-0.16126843,-0.113213689333,-0.516384766667,
-38.879997,-11.34,11.16,NO-DATA,3.8835626,254.07468,-11.997672,2.2601264,0.9576807,10.534488,-0.167784323333,-0.27814731,-0.0688241486667,
-38.879997,-11.219999,10.92,NO-DATA,3.8184881,254.2839,-11.633985,2.2601264,0.9959879,10.036493,-0.122783915,-0.29077186,0.070860365,
-38.879997,-11.219999,10.98,NO-DATA,3.8150384,254.40701,-11.458495,2.719813,0.91937345,9.040505,-0.0647517166667,-0.0753400486667,-0.0171042286667,
-38.76,-11.28,10.98,NO-DATA,3.921452,254.51239,-11.663431,3.2561142,0.8810662,8.887277,-0.0818559413333,0.25411994,-0.125838243333,
-38.879997,-11.099999,11.16,NO-DATA,4.198859,254.83185,-12.119366,3.3327289,0.8810662,9.500193,-0.272038656667,0.371406066667,-0.314391986667,
-38.879997,-10.92,11.099999,NO-DATA,4.4424024,255.27429,-12.329726,3.3327289,0.8810662,9.500193,-0.477696616667,0.0851138933333,-0.30217467,
-38.879997,-10.86,11.04,NO-DATA,4.4424024,255.27429,-12.329726,3.3327289,0.8810662,9.500193,-0.551611305,-0.0354301835,-0.0360410505,
-38.879997,-10.86,11.04,NO-DATA,4.430862,255.93521,-12.354562,2.528277,0.6895301,8.925584,-0.6585127,-0.02076942,0.18936823,
-39.059998,-10.86,10.8,NO-DATA,4.043296,256.74106,-12.452527,2.183512,0.4213795,8.42759,-0.715934063333,0.118100611667,0.141313496667,
-39.0,-10.559999,11.16,NO-DATA,3.8466215,257.6538,-12.755114,2.030283,0.22984336,8.695741,-0.68742702,0.226427386667,-0.139277278667,
-39.18,-10.44,11.16,NO-DATA,3.910314,258.59097,-12.973117,2.183512,0.45968673,9.423578,-0.66889745,0.021991148,-0.237015715,
-39.18,-10.2,10.92,NO-DATA,3.9189548,259.32364,-12.777206,2.183512,0.45968673,9.423578,-0.77783508,-0.500095,-0.15271631,
-39.18,-10.2,10.92,NO-DATA,3.9189548,259.32364,-12.777206,2.183512,0.45968673,9.423578,-0.8894198,-0.89308495,-0.19547688,
-39.3,-10.0199995,10.86,NO-DATA,3.9229598,260.43893,-11.848908,1.2258313,0.7278373,8.963891,-0.9101892,-1.1643091,-0.28344148,
-39.48,-9.84,10.5,NO-DATA,4.090115,261.51688,-10.467284,1.3790601,0.842759,9.500193,-0.780685806667,-1.14557593333,-0.333532426667,
-39.84,-9.36,10.44,NO-DATA,4.364224,262.3452,-9.332961,1.4556746,0.6895301,10.0748005,-0.682540096667,-0.731409346667,-0.268373456667,
-40.02,-8.7,10.32,NO-DATA,4.411092,263.07156,-8.753411,1.2641385,0.842759,9.883265,-0.6695083,-0.37934733,-0.02626720475,
-40.02,-8.28,10.38,NO-DATA,4.3789577,263.5927,-8.468703,1.2641385,0.842759,9.883265,-0.638150586667,-0.372220546667,-0.150272848,
-40.02,-8.28,10.38,NO-DATA,4.3789577,263.5927,-8.468703,1.2641385,0.842759,9.883265,-0.6450737,-0.48624873,-0.31520647,
-40.2,-7.74,10.32,NO-DATA,4.6585546,264.34283,-7.928274,1.9919758,1.3790601,10.457873,-0.71837753,-0.653625825,-0.423940475,
-40.5,-6.96,10.32,NO-DATA,5.077003,265.37198,-7.077158,1.2258313,1.1109096,10.649409,-0.96028019,-0.888198076667,-0.459370666667,
-40.739998,-6.2999997,10.38,NO-DATA,5.5015664,266.57776,-6.1893964,1.340753,1.3024458,9.998186,-0.988787216667,-0.568511943333,-0.363261206667,
-40.739998,-5.3399997,10.38,NO-DATA,5.506284,267.50943,-6.175608,1.3790601,0.8810662,9.308656,-0.7004588,0.437379516667,0.203621746667,
-40.8,-4.92,10.44,NO-DATA,5.231592,268.01538,-6.9669023,1.8004397,0.61291564,8.887277,-0.629598423333,1.30602986667,0.132761383333,
-40.8,-4.56,10.38,NO-DATA,5.0345087,268.86154,-8.7513075,1.1492168,1.0342951,8.963891,-0.64751715,1.53327175,-0.096516705,
-40.739998,-4.5,10.2,NO-DATA,5.147569,269.84232,-10.528732,1.1492168,1.0342951,8.963891,-0.577064053333,1.32435583333,-0.244346096667,
-40.739998,-4.5,10.2,NO-DATA,5.147569,269.84232,-10.528732,1.1492168,1.0342951,8.963891,-0.577064053333,1.32435583333,-0.244346096667,
-40.739998,-4.56,10.0199995,NO-DATA,5.204803,270.7202,-12.003194,0.9576807,2.030283,11.109096,-0.320500633333,1.23557673333,0.0598647923333,
-40.559998,-5.16,9.719999,NO-DATA,4.8911176,270.8809,-13.41151,1.1109096,2.0685902,10.534488,0.0578285776667,1.14679766667,0.378736443333,
-40.32,-5.8199997,9.84,NO-DATA,4.593173,270.7491,-14.325027,2.6048915,0.11492168,8.42759,0.20362175,0.91589065,0.277332816667,
-40.379997,-6.3599997,9.719999,NO-DATA,4.52068,270.7542,-15.224194,2.681506,0.7661445,8.465898,-0.166155351,0.60353488,-0.414166653333,
-40.32,-7.2,9.54,NO-DATA,5.139738,271.31277,-15.9123535,2.4899697,1.340753,8.121132,-0.747699046667,0.368555363333,-1.21562183333,
-40.379997,-7.8599997,9.36,NO-DATA,6.462512,272.8314,-16.399258,2.336741,1.0726024,8.350976,-1.2571607,0.0421497025,-1.83748265,
-40.2,-8.5199995,9.0,NO-DATA,8.386049,275.32294,-16.473877,2.336741,0.7661445,9.768343,-1.5544484,-0.49154289,-2.33146906667,
-40.2,-8.5199995,9.0,NO-DATA,10.043427,277.32074,-16.087936,3.3327289,-0.49799395,10.189722,-1.2916135,-1.163331786,-2.2983193,
-40.379997,-8.4,8.28,NO-DATA,12.159688,279.41833,-14.860575,3.5242648,0.9959879,9.80665,-0.54916785,-1.6206255,-1.9419406,
-40.68,-7.7999997,7.5,NO-DATA,14.320504,280.4385,-13.178663,2.719813,2.7964275,9.232041,0.658919966667,-1.32231963333,-1.87291276667,
-40.92,-7.2,6.2999997,NO-DATA,16.802856,279.76303,-11.525246,3.371036,2.4516625,10.534488,1.61838566667,-0.951320816667,-1.89612573333,
-41.219997,-6.54,5.04,NO-DATA,19.283678,278.1342,-10.006921,3.5625722,2.0685902,9.500193,1.45630275,-0.36285396,-1.32863185,
-41.399998,-5.8799996,3.6599998,NO-DATA,20.480759,277.2174,-9.60622,3.5625722,2.0685902,9.500193,0.237015716667,0.573806096667,-0.736703496667,
-41.399998,-5.8799996,3.6599998,NO-DATA,20.480759,277.2174,-9.60622,3.5625722,2.0685902,9.500193,-0.43127087,0.84665924,-0.5766568,
-41.46,-5.4,2.52,NO-DATA,21.251326,277.47568,-10.538805,0.6512229,3.4093432,9.80665,-0.778853165,0.8625417,-0.47219883,
-41.64,-5.22,1.4399999,NO-DATA,21.627037,278.59103,-12.006894,0.6895301,2.9879637,9.80665,-0.880460433333,1.00466968667,-0.50009501,
-41.7,-5.22,0.06,NO-DATA,22.111797,279.91595,-13.732402,0.11492168,3.6774938,10.266336,-0.948877333333,1.1561643,-0.845030256667,
-41.7,-5.58,-0.53999996,NO-DATA,22.807392,281.46634,-15.623323,0.4213795,4.060566,10.266336,-1.0824532,1.10872045,-0.81855943,
-41.7,-6.06,-1.5,NO-DATA,23.14428,282.87268,-17.040691,0.4213795,4.060566,10.266336,-1.4163929,1.12073413333,-0.45407648,
-41.7,-6.06,-1.5,NO-DATA,23.015526,284.65283,-19.234312,0.4213795,4.060566,10.266336,-1.0406089375,1.536631525,-0.09712757075,
-41.7,-6.06,-1.5,NO-DATA,23.015526,284.65283,-19.234312,2.528277,3.4859576,8.389283,-1.0406089375,1.536631525,-0.09712757075,
-41.219997,-8.16,-2.1599998,NO-DATA,22.743563,285.9865,-21.657722,0.9576807,3.7541082,8.197746,-1.6159422,1.7153096,-0.291993586667,
-40.92,-9.599999,-2.46,NO-DATA,22.235712,288.4031,-24.801838,3.4476504,1.685518,6.895301,-2.31069956667,2.1775309,-0.565253983333,
-40.44,-10.92,-2.46,NO-DATA,21.887558,291.42352,-28.5176,4.3287168,2.834735,8.274361,-1.61960736667,1.82282186667,-1.52675586667,
-39.96,-12.059999,-2.52,NO-DATA,22.452911,293.47055,-30.862864,4.3287168,2.834735,8.274361,-1.0739011,1.56137155,-1.3445144,
-39.96,-12.059999,-2.52,1280.0,22.452911,293.47055,-30.862864,4.3287168,2.834735,8.274361,-0.9071349,1.4288138,-0.967610535,
-39.42,-13.38,-2.28,1280.0,22.452911,293.47055,-30.862864,5.133168,2.873042,6.703765,-0.702495035,1.15514615,-0.64201939,
-38.879997,-14.7,-2.7,1280.0,23.251398,296.6228,-35.190136,5.094861,2.7581203,5.439626,-0.274889353333,0.627562236667,-0.412130426667,
-38.399998,-15.839999,-2.76,1280.0,23.57498,297.17108,-36.03296,4.7500963,3.715801,5.93762,-0.123394779,0.366111896667,-0.673987986667,
-37.8,-16.859999,-3.0,1280.0,24.14746,298.03897,-36.796883,4.711789,4.2521024,6.6654577,-0.608829026667,0.363261206667,-0.90204435,
-37.5,-17.76,-3.36,1280.0,24.42608,299.10596,-37.545322,8.121132,3.9073372,7.0485296,-1.38544236667,0.0916297886667,-0.590910313333,
-37.14,-18.119999,-3.3,1280.0,24.001684,300.99854,-38.40297,5.9759274,2.3750482,7.2783732,-1.17652645,-0.425976703333,-0.401542086667,
-37.079998,-18.48,-3.6,1280.0,23.531101,302.5304,-38.521343,5.209783,2.4516625,7.3166804,-0.355523575,-0.31703906,-0.54855698,
-36.96,-18.84,-4.14,1280.0,23.860785,303.35037,-38.508984,5.5162406,2.528277,7.5848308,-0.0411315933333,-0.0150680106667,-0.832405733333,
-36.899998,-18.96,-4.68,1280.0,24.73498,304.04675,-38.815502,5.133168,3.064578,7.8529816,0.342491783333,0.0362446713333,-0.89919365,
-36.84,-19.02,-4.98,1280.0,25.570807,304.28445,-38.912407,5.707777,3.4476504,7.393295,0.501723983333,-0.247604036667,-0.50253847,
-36.84,-19.02,-4.98,1280.0,26.706091,304.005265,-38.17219,3.5625722,3.3327289,7.240066,0.378940078333,-0.235793979333,-0.351451136667,
-36.84,-19.02,-4.98,1280.0,27.731253,303.8672,-38.13448,4.3287168,2.873042,7.0485296,0.4196644225,0.449596825,-0.6096435125,
-36.84,-19.02,-4.98,1280.0,28.696293,303.87827,-38.71855,6.090849,3.7924154,6.8186865,0.45407648,0.461406876667,-0.70086605,
-36.84,-19.02,-4.98,1280.0,29.118767,304.1712,-39.254105,6.8186865,4.4819455,7.086837,-0.09743300675,0.4450153325,-0.443793605,
-36.84,-19.02,-4.98,1280.0,29.080273,304.94943,-40.158318,6.7803793,4.060566,6.244078,-0.6270531775,0.45020768,-0.3466660225,
-36.84,-19.02,-4.98,1280.0,28.852999,306.25128,-41.281494,6.703765,3.9839516,5.861006,-0.923322815,0.375376695,-0.5335908025,
-36.84,-19.02,-4.98,1280.0,28.604338,307.74377,-42.35871,5.5162406,3.1411927,5.554548,-0.8179485675,0.236404845,-0.676533255,
-36.84,-19.02,-4.98,1280.0,28.835363,309.0112,-43.097134,5.554548,3.064578,5.93762,-0.4013384575,0.06536258225,-0.7681630575,
-36.84,-19.02,-4.98,1280.0,28.835363,309.0112,-43.097134,5.592855,3.1411927,5.93762,-0.4013384575,0.06536258225,-0.7681630575,
-36.84,-19.02,-4.98,1280.0,30.291176,311.27563,-43.25614,6.167464,4.4819455,5.746084,-0.650204948,-0.562729054,-0.461081072,
-36.84,-19.02,-4.98,1280.0,30.223505,312.6556,-43.33242,5.4779334,3.9073372,6.435614,-0.668286556667,-0.334754153333,-0.770097453333,
-35.88,-21.359999,-9.78,1280.0,30.44044,313.61105,-43.60132,5.4779334,3.9073372,6.435614,-0.27885998,-0.12217305,-0.6902777225,
-36.059998,-21.06,-10.38,1280.0,30.782,314.28833,-43.84341,5.4779334,3.9073372,6.435614,-0.063835418,-0.0345138875,-0.1970040385,
-36.059998,-21.06,-10.38,1280.0,30.796972,314.4278,-43.85221,6.8186865,4.0222588,5.707777,-0.0863356216667,-0.053348899,-0.024434611,
-36.3,-20.88,-11.04,1280.0,30.59291,314.60696,-44.010994,6.8186865,4.0222588,5.707777,-0.1508837175,-0.0931569525,-0.144164195,
-36.3,-20.699999,-11.219999,1280.0,30.549494,315.0822,-44.2334,6.8186865,4.0222588,5.707777,-0.2415972025,-0.0335975885,-0.376293,
-36.059998,-20.699999,-11.4,1280.0,30.719353,315.63544,-44.54059,6.8186865,4.0222588,5.707777,-0.221438655,0.12370021175,-0.54428092,
-36.059998,-20.699999,-11.4,1280.0,30.837162,316.44476,-45.319233,6.742072,3.9456444,5.056554,-0.246789562,0.206961142,-0.5453805,
-35.34,-20.64,-11.4,1280.0,30.871067,317.38403,-46.254395,6.742072,3.9456444,5.056554,-0.272038656667,0.0676024203333,-0.58928132,
-35.04,-20.699999,-11.219999,1280.0,30.953033,318.35236,-46.91619,6.742072,3.9456444,5.056554,-0.357967026667,-0.0924442733333,-0.480140086667,
-34.98,-21.0,-11.28,1280.0,30.829165,319.18588,-47.213497,6.742072,3.9456444,5.056554,-0.450513125,-0.1649336125,-0.3711006325,
-34.5,-21.18,-11.5199995,1280.0,30.603754,319.8449,-47.50201,6.742072,3.9456444,5.056554,-0.43279802,-0.1554652065,-0.5213734875,
-34.079998,-21.18,-11.4,1280.0,30.568392,320.92352,-47.97762,6.742072,3.9456444,5.056554,-0.71929384,0.07605272275,-0.6041457375,
-33.6,-21.48,-11.34,1280.0,30.133923,322.3492,-48.936882,6.742072,3.9456444,5.056554,-1.263574775,0.3689626125,-0.41050144,
-33.42,-21.72,-11.46,1280.0,29.23395,323.9652,-50.21739,6.742072,3.9456444,5.056554,-1.2421945,0.43554692,-0.390037455,
-33.36,-22.14,-11.28,1280.0,28.257647,325.38217,-51.36625,6.742072,3.9456444,5.056554,-0.919555853333,0.40846522,-0.25289821,
-33.3,-22.5,-11.28,1280.0,27.779543,325.9731,-51.960487,7.0102224,3.5242648,5.592855,-0.58765239,0.29932398,-0.01557706425,
-33.12,-23.039999,-11.34,1280.0,27.436207,326.42322,-52.46211,7.0102224,3.5242648,5.592855,-0.11392636875,0.1328631935,-0.3604104925,
-33.12,-23.039999,-11.34,1280.0,27.925144,326.9215,-52.667515,5.9759274,3.3327289,5.094861,0.564032236667,-0.335365016667,-0.724282555,
-32.94,-23.22,-11.58,1280.0,27.925144,326.9215,-52.667515,5.9759274,3.3327289,5.094861,0.564032236667,-0.335365016667,-0.724282555,
-32.94,-23.22,-11.58,1280.0,30.469728,327.24988,-51.816128,5.9759274,3.3327289,5.094861,0.901331685,-0.414472065,-0.7101308525,
-32.94,-23.22,-11.58,1280.0,31.574524,327.00613,-51.359295,6.7803793,4.596867,4.6351743,0.963029075,-0.5079344425,-0.77915861,
-32.94,-23.22,-11.58,1280.0,32.866886,327.021,-50.49565,7.3549876,5.8226986,6.0525417,0.719192013333,-0.85480409,-0.7415904,
-32.94,-23.22,-11.58,1280.0,33.921333,327.0369,-49.18329,6.3206925,6.7803793,7.0485296,0.649349755,-1.103833475,-0.5134322475,
-32.94,-23.22,-11.58,1280.0,34.687862,326.539,-47.41371,5.66947,6.6654577,6.895301,0.7174612275,-1.23761295,-0.1230893475,
-32.94,-23.22,-11.58,1280.0,35.43245,325.79416,-45.71296,5.056554,6.4739213,7.0485296,0.7987063125,-0.9718866,-0.05039638375,
-33.66,-21.06,-15.0,1280.0,35.43245,325.79416,-45.71296,5.056554,6.4739213,7.0485296,0.7987063125,-0.9718866,-0.05039638375,
-33.66,-21.06,-15.0,1280.0,36.155838,325.26407,-45.075317,5.056554,6.4739213,7.0485296,0.97891155,-0.1398881465,-0.319177095,
-33.66,-21.06,-15.0,1280.0,37.571423,324.4951,-44.813408,4.4436383,5.209783,4.4436383,1.3023647,0.209221345,-0.4651738825,
-33.66,-21.06,-15.0,1280.0,39.193455,323.35107,-44.155903,3.6774938,5.171476,3.6774938,1.583973575,-0.11392637025,-0.398589565,
-33.66,-21.06,-15.0,1280.0,41.10731,321.54486,-42.38991,2.566584,4.903325,3.4859576,2.09893296667,-0.633670886667,-0.355116326667,
-33.66,-21.06,-15.0,1280.0,43.47881,318.54968,-39.16621,2.6048915,7.469909,5.554548,2.7522533,-1.03877636,-0.2461787,
-33.66,-21.06,-15.0,1280.0,45.019432,315.48062,-35.89783,2.183512,8.274361,6.742072,2.9813278,-1.226617425,0.35277468425,
-33.66,-21.06,-15.0,1280.0,45.862934,310.31735,-30.778246,2.3750482,9.691729,7.3166804,2.771801025,-1.164003725,1.568701925,
-33.66,-21.06,-15.0,1280.0,45.153893,304.28384,-25.00041,3.217807,9.11712,7.086837,3.076928225,-1.2443325,2.422386175,
-33.66,-21.06,-15.0,1280.0,43.67227,296.67346,-17.962921,3.371036,7.967903,6.703765,4.0170499,-1.488373175,2.915354425,
-34.559998,-10.44,-17.76,1280.0,41.667225,288.0814,-10.4213295,3.5242648,8.42759,7.0485296,3.5503488,-1.3846279,2.8865419,
-34.559998,-10.44,-17.76,1280.0,39.53433,284.6695,-7.1390204,3.217807,7.6614456,7.3549876,1.953241675,-1.0015135375,2.66581595,
-34.559998,-10.44,-17.76,1280.0,36.94814,283.1257,-5.506003,2.6048915,5.899313,7.086837,0.252898199,-0.29321532,1.99936195,
-34.559998,-10.44,-17.76,1280.0,34.863224,283.05234,-5.328724,1.340753,5.171476,7.393295,-0.22204951,-0.09071349,1.6200146,
-34.559998,-10.44,-17.76,1280.0,33.138115,283.59674,-5.3881474,1.3790601,5.899313,7.6614456,-0.7987063,-0.24740042,1.2483031,
-34.559998,-10.44,-17.76,1280.0,31.880316,285.55316,-6.075976,1.6089035,6.244078,7.699753,-1.8976529,-0.2782491175,0.727235065,
-34.559998,-10.44,-17.76,1280.0,31.006067,287.98846,-7.141339,-0.22984336,5.3247046,8.925584,-2.61979736667,-0.138055548,0.824668086667,
-34.559998,-10.44,-17.76,1280.0,29.364662,291.43164,-8.883041,-1.685518,5.401319,8.0445175,-2.39630218,0.1238834714,1.23687994,
-34.559998,-10.44,-17.76,1280.0,27.230703,293.75476,-10.077318,-1.8004397,5.056554,7.240066,-1.44408543333,-0.143349718,1.68110116667,
-34.559998,-10.44,-17.76,1280.0,24.90379,294.7474,-9.968395,-1.4173675,4.4436383,6.8569937,-0.8817839825,-0.601091425,1.831984825,
-34.559998,-10.44,-17.76,1280.0,22.63252,295.29504,-9.331775,1.5705963,2.9113493,6.3589997,-0.6963863875,-0.6768386975,1.732413875,
-34.559998,-10.44,-17.76,1280.0,20.729813,295.69247,-8.9139385,1.3790601,2.528277,7.393295,-0.8365799575,-0.53420165,3.0906727,
-34.559998,-10.44,-17.76,1280.0,15.744596,296.052,-8.597911,2.0685902,1.8004397,8.887277,-0.9581421375,0.1948660135,5.31605475,
-34.559998,-10.44,-17.76,1280.0,8.932704,296.1367,-9.41499,2.4899697,2.9879637,7.8529816,-0.869464873333,1.47096353333,5.37235613333,
-34.559998,-10.44,-17.76,1280.0,2.8834343,295.94305,-12.34572,2.873042,2.336741,6.2823853,-0.6801984675,3.14503975,4.91196745,
-34.559998,-10.44,-17.76,1280.0,-1.7747046,295.41394,-16.652548,3.2561142,-3.5242648,8.389283,-0.4382958125,3.0747902,1.8032742625,
-34.559998,-10.44,-17.76,1280.0,-0.6269419,296.08533,-18.01031,0.34476504,-2.681506,12.603078,-0.209526785,0.6331618375,-1.6539176625,
-34.559998,-10.44,-17.76,1280.0,-0.19548039,296.42715,-18.74279,0.6512229,-3.3327289,13.828909,-0.07483098875,0.7944302625,1.6630806675,
-34.559998,-10.44,-17.76,1280.0,-2.7785983,295.5839,-19.660849,3.8307228,-0.5363012,8.42759,-0.1142317965,0.6084217725,2.540283125,
-34.559998,-10.44,-17.76,1280.0,-5.7398624,294.68405,-20.387287,5.5162406,2.4516625,9.768343,-0.059050304,0.593761,2.65482033333,
-34.559998,-10.44,-17.76,1280.0,-8.534974,293.2835,-21.34631,7.5465236,3.715801,9.461885,0.4508185425,0.62613687,2.340530125,
-34.559998,-10.44,-17.76,1280.0,-9.793165,292.21497,-21.864166,7.3549876,1.2641385,8.389283,0.539699455,-0.0372627775,0.9825767425,
-34.559998,-10.44,-17.76,1280.0,-10.29081,291.4552,-21.470432,8.542512,-1.2258313,7.1634517,-0.0097738425,-1.113301925,0.4581489275,
-34.559998,-10.44,-17.76,1280.0,-11.005611,291.5951,-19.599031,6.895301,-1.2258313,6.0525417,-0.6508769475,-2.23301795,0.5806274325,
-34.559998,-10.44,-17.76,1280.0,-11.917144,292.30194,-16.16799,4.1371803,-1.9919758,6.7803793,-1.066876175,-3.565620375,0.508239885,
-34.559998,-10.44,-17.76,1280.0,-12.6895685,293.68292,-10.889452,-0.9576807,-2.1452048,10.840945,-1.503033925,-4.990768975,0.0116064365,
-34.559998,-10.44,-17.76,1280.0,-12.775586,295.16504,-5.7833924,-1.3024458,-3.6008794,15.897499,-1.7930931,-5.4472891,-0.290364613333,
-34.559998,-10.44,-17.76,225.0,-12.558975,297.45544,0.98388445,-0.8810662,-2.7964275,18.885464,-1.942246025,-4.132503325,0.0736092625,
-34.559998,-10.44,-17.76,225.0,-12.849721,299.91553,5.3929996,-0.6895301,-1.4556746,19.421764,-2.017993325,-1.4382822575,0.7773260125,
-34.559998,-10.44,-17.76,225.0,-13.662162,302.57062,6.493191,-1.9536686,-3.4476504,15.322891,-2.03662475,1.1908818,1.00884391,
-34.559998,-10.44,-17.76,225.0,-14.6199045,305.09775,4.73408,-2.2601264,-3.1794999,11.492168,-1.7498235,2.9443705,0.8680394925,
-34.559998,-10.44,-17.76,225.0,-15.2057,306.71054,2.2777674,-1.9153614,-3.0262709,7.967903,-1.57633775,3.34326555,0.405614515,
-34.559998,-10.44,-17.76,225.0,-15.588883,308.68182,-1.1624714,-1.1875241,-3.3327289,6.3589997,-1.5756251,2.87595363333,0.036244671,
-34.559998,-10.44,-17.76,225.0,-15.705883,310.6775,-3.8386862,-0.7278373,-3.217807,4.711789,-1.687820675,2.098322125,0.0284052335,
-34.559998,-10.44,-17.76,225.0,-15.822008,312.8749,-5.2198777,0.038307227,-3.4859576,5.2863975,-1.82037845,0.85246244,-0.1377501125,
-34.559998,-10.44,-17.76,225.0,-15.877444,315.137,-5.0467,0.4213795,-2.873042,4.9799395,-1.71194985,-0.44501534,-0.05864306475,
-34.559998,-10.44,-17.76,160.0,-15.940572,316.69858,-3.886085,-0.91937345,-3.4093432,5.66947,-1.5109752,-1.84756195,-0.04856378725,
-34.559998,-10.44,-17.76,160.0,-15.946834,318.55667,-0.93638873,-1.8004397,-3.1794999,7.3166804,-1.301448425,-2.940705275,-0.15577064,
-34.559998,-10.44,-17.76,160.0,-15.685329,320.1513,3.1503012,-2.183512,-3.371036,11.070788,-1.13172966667,-3.11582003333,-0.301767426667,
-34.559998,-10.44,-17.76,160.0,-15.2922125,321.46918,6.9756384,-2.2601264,-3.4093432,13.828909,-0.9560041,-1.9758436,0.087964596,
-34.559998,-10.44,-17.76,160.0,-15.503822,322.6376,8.886278,-0.038307227,-2.3750482,10.151415,-0.8491026875,-0.368657179,0.554054775,
-34.559998,-10.44,-17.76,160.0,-15.887833,323.50293,9.217599,0.49799395,-2.4516625,8.580819,-0.8481864,0.35216381,0.434019755,
-34.559998,-10.44,-17.76,160.0,-16.18941,324.62555,9.06485,0.49799395,-2.4133554,8.236053,-0.79779001,0.6352998625,0.1847867325,
-34.559998,-10.44,-17.76,160.0,-16.228748,325.64294,8.577656,0.076614454,-2.2218192,7.2783732,-0.8197811625,0.5827654425,0.05955936075,
-34.559998,-10.44,-17.76,160.0,-16.124891,326.6579,8.229776,0.15322891,-3.217807,8.121132,-0.71929383,0.20005837,0.00641408475,
-33.059998,17.46,20.58,225.0,-16.020813,327.5292,8.272185,0.15322891,-3.217807,8.121132,-0.632856383333,0.173892976667,0.156381502,
-33.12,18.06,20.22,225.0,-16.217701,327.9014,7.8111863,0.15322891,-3.217807,8.121132,-0.749837075,0.513126795,0.502131225,
-33.48,18.119999,20.039999,225.0,-16.717482,328.93408,7.450438,0.15322891,-3.217807,8.121132,-0.676533225,0.650571495,0.5876523675,
-33.42,18.18,20.16,225.0,-17.840984,329.82904,7.1108437,0.15322891,-3.217807,8.121132,-0.4987714825,0.52473325,0.68142019,
-33.48,18.18,20.22,225.0,-19.056208,330.65274,7.2722063,0.15322891,-3.217807,8.121132,-0.5595525775,0.2293799025,0.2987131025,
-33.36,18.119999,20.34,225.0,-18.9784145,331.65584,6.9975473,0.15322891,-3.217807,8.121132,-0.6737843625,-0.04886922125,-0.000610865375,
-33.0,18.24,20.279999,225.0,-18.9784145,331.65584,6.9975473,0.15322891,-3.217807,8.121132,-0.825482566667,-0.11280645,-0.0048869222,
-33.0,18.3,20.4,225.0,-18.754713,332.73846,6.4911423,0.15322891,-3.217807,8.121132,-0.8319984475,-0.133168625,-0.0455094585,
-32.88,18.539999,20.1,225.0,-18.877699,333.46066,5.637395,0.15322891,-3.217807,8.121132,-0.722653565,-0.0467311935,-0.1835650075,
-32.82,18.66,19.98,225.0,-18.745304,334.19208,5.409131,0.15322891,-3.217807,8.121132,-0.5943718875,0.0934623825,-0.2364048525,
-32.82,18.66,19.98,225.0,-18.745304,334.19208,5.409131,0.2681506,-3.9073372,10.228029,-0.5943718875,0.0934623825,-0.2364048525,
-32.52,18.9,19.859999,225.0,-18.761903,334.872865,4.6250265,0.2681506,-3.9073372,10.228029,-0.428827393333,0.08511389,-0.251269243333,
-32.399998,19.14,19.8,225.0,-18.448809,335.24768,3.8103726,0.2681506,-3.9073372,10.228029,-0.2266310075,0.1218676175,-0.2614503325,
-32.399998,19.26,19.38,225.0,-18.448809,335.24768,3.8103726,0.2681506,-3.9073372,10.228029,0.018733201,0.23294328,-0.33719761,
-32.64,19.38,19.02,225.0,-18.024912,335.19498,3.5236762,0.2681506,-3.9073372,10.228029,0.183565005,0.4004221725,-0.515875705,
-32.82,19.26,18.539999,225.0,-17.39065,334.901,2.9578242,0.2681506,-3.9073372,10.228029,0.33628131,0.2809980025,-0.54000488,
-33.059998,19.5,18.359999,225.0,-16.7538485,334.13286,2.61557505,0.2681506,-3.9073372,10.228029,0.606711368,-0.33939672,-0.0559552584,
-33.12,19.32,18.42,225.0,-16.7538485,334.13286,2.61557505,0.2681506,-3.9073372,10.228029,0.606711368,-0.33939672,-0.0559552584,
-33.12,19.26,18.359999,225.0,-17.5840625,332.75342,3.59461515,0.2681506,-3.9073372,10.228029,0.55187311,-0.775798857143,0.667588444286,
-33.0,19.26,18.66,225.0,-19.794216,332.2195,5.1485486,0.2681506,-3.9073372,10.228029,0.2568688425,-0.9783006825,1.53876955,
-32.76,19.26,18.779999,225.0,-19.794216,332.2195,5.1485486,0.2681506,-3.9073372,10.228029,-0.0586430646667,-0.882089413333,2.07490556667,
-32.46,19.619999,19.14,225.0,-22.8896675,332.715255,6.70296685,0.2681506,-3.9073372,10.228029,-0.177150925,-0.652404095,1.5238033,
-32.1,19.92,19.5,225.0,-23.346567,332.69327,7.346058,0.2681506,-3.9073372,10.228029,0.197004035,-0.2134973975,-0.4960225725,
-31.74,20.46,20.039999,225.0,-22.397263,332.37405,7.6536465,0.2681506,-3.9073372,10.228029,0.29779681,-0.16218472,-0.7379252275,
-31.38,20.52,20.34,225.0,-22.297682,331.94916,7.397829,0.2681506,-3.9073372,10.228029,0.325896605,0.14844025375,-0.110261175,
-31.199999,20.64,20.58,225.0,-22.125643,331.67386,6.96335,0.2681506,-3.9073372,10.228029,0.326202035,0.401338475,-0.0445931635,
-31.019999,20.699999,20.88,225.0,-22.7454,331.33835,6.6027646,0.2681506,-3.9073372,10.228029,0.472809683333,0.229278086667,0.88779081,
-31.14,20.58,21.18,225.0,-23.843393,330.5365,6.2126985,0.2681506,-3.9073372,10.228029,0.701578725,0.04337143,0.733649145,
-30.9,20.4,21.359999,225.0,-23.977747,330.48764,6.6507382,0.2681506,-3.9073372,10.228029,0.1860084685,-0.14263703075,0.54519724,
-30.84,20.46,21.24,225.0,-23.886982,331.21176,7.68659,0.2681506,-3.9073372,10.228029,-0.6542366625,-0.6585127225,-0.055283306,
-30.779999,20.58,21.06,225.0,-23.42564,332.095,8.751376,0.2681506,-3.9073372,10.228029,-0.6682865725,-0.5064072925,-0.2779436825,
-30.779999,20.58,21.06,225.0,-23.20683,332.4974,8.564856,0.2681506,-3.9073372,10.228029,-0.29565878,0.350025785,0.0720820985,
-30.779999,20.58,21.06,225.0,-22.63603,333.2526,6.7404127,1.1492168,-1.8770541,9.040505,-0.439212105,1.100473725,0.2987131075,
-30.779999,20.58,21.06,225.0,-22.63603,333.2526,6.7404127,1.1492168,-1.8770541,9.040505,-0.439212105,1.100473725,0.2987131075,
-31.26,20.76,20.82,225.0,-22.846632,334.2751,4.9908714,1.1492168,-1.8770541,9.040505,-0.818559416667,1.75684846667,0.47566039,
-31.26,20.76,20.82,225.0,-23.644585,335.64508,2.8108377,1.1492168,-1.8770541,9.040505,-1.00853854,2.33839215,0.78221295,
-31.26,20.76,20.82,225.0,-23.644585,335.64508,2.8108377,1.1492168,-1.8770541,9.040505,-1.00853854,2.33839215,0.78221295,
-31.26,20.76,20.82,225.0,-23.644585,335.64508,2.8108377,1.1492168,-1.8770541,9.040505,-1.00853854,2.33839215,0.78221295,
-26.092499625,13.319999375,30.1725,160.0,-34.14683125,325.29752,0.3627452675,0.236227911667,-3.9903362,4.90332497167,0.0,0.0,0.0,
-26.092499625,13.319999375,30.1725,160.0,-34.120308,325.2895,0.39506423,0.236227911667,-3.9903362,4.90332497167,0.0,0.0,0.0,
-21.24,11.219999,34.079998,160.0,-34.1053525,325.28495,0.4132851,0.236227911667,-3.9903362,4.90332497167,0.0,0.0,0.0,
-19.68,10.679999,35.1,160.0,-34.090393,325.2804,0.43150625,0.236227911667,-3.9903362,4.90332497167,0.0,0.0,0.0,
-18.66,10.0199995,35.82,160.0,-34.07951,325.2771,0.44476092,0.236227911667,-3.9903362,4.90332497167,0.0,0.0,0.0,
-18.6,9.36,36.18,160.0,-34.07951,325.2771,0.44476092,0.236227911667,-3.9903362,4.90332497167,0.0,0.0,0.0,
-19.26,8.76,35.7,160.0,-34.06863,325.27377,0.4580153,0.236227911667,-3.9903362,4.90332497167,0.0,0.0,0.0,
-20.64,8.94,34.86,160.0,-34.0536775,325.269225,0.476234245,0.236227911667,-3.9903362,4.90332497167,0.0,0.0,0.0,
-21.96,9.42,33.78,160.0,-34.038723,325.26465,0.49445036,0.236227911667,-3.9903362,4.90332497167,0.0,0.0,0.0,
-23.16,10.44,32.579998,160.0,-34.06741,327.80814,6.928798,0.236227911667,-3.9903362,4.90332497167,-1.9999728,-4.718934075,0.1350012215,
-24.48,11.88,31.199999,160.0,-32.82739,329.7742,13.3106165,0.236227911667,-3.9903362,4.90332497167,-1.3817771625,-4.3081272,-0.9282097525,
-25.8,13.38,30.119999,160.0,-32.82739,329.7742,13.3106165,0.236227911667,-3.9903362,4.90332497167,0.0260635883333,-3.88103056667,-1.8342247,
-26.82,15.179999,28.98,160.0,-29.848264,328.320695,19.002241,0.236227911667,-3.9903362,4.90332497167,0.7458664675,-3.767511425,-2.302656575,
-26.939999,17.34,27.84,160.0,-26.728868,325.17242,23.773186,0.236227911667,-3.9903362,4.90332497167,0.9324858025,-3.76751145,-2.325258475,
-26.699999,19.8,27.0,160.0,-25.428904,323.07367,27.09774,0.236227911667,-3.9903362,4.90332497167,0.9483683125,-3.429091975,-1.523803325,
-25.859999,22.02,26.16,160.0,-25.020977,321.58255,30.045046,0.236227911667,-3.9903362,4.90332497167,0.7907650875,-2.90588595,-0.729067665,
-24.9,24.0,25.8,160.0,-25.272264,320.86224,32.806004,0.236227911667,-3.9903362,4.90332497167,0.5491678475,-2.47583685,-0.006108655,
-24.0,25.56,25.56,160.0,-26.263142,320.97623,35.38372,0.236227911667,-3.9903362,4.90332497167,0.36285395,-2.00913575,0.8594874025,
-23.22,26.58,25.26,160.0,-27.495077,321.83835,37.100735,0.236227911667,-3.9903362,4.90332497167,0.0753400486667,-1.35774983333,1.73567176667,
-22.199999,27.84,24.96,160.0,-29.663628,324.05777,39.34351,0.236227911667,-3.9903362,4.90332497167,-0.19730947,-0.928209715,2.527760425,
-20.64,28.74,25.08,160.0,-32.41004,328.0575,42.48976,0.236227911667,-3.9903362,4.90332497167,-0.742506705,-0.879951375,3.806606775,
-18.9,29.58,25.439999,160.0,-35.85681,334.66742,47.122925,0.236227911667,-3.9903362,4.90332497167,-1.223257625,-0.71501776,5.3740871,
-16.859999,30.24,25.68,160.0,-39.628178,342.5646,52.58776,0.236227911667,-3.9903362,4.90332497167,-0.9004153825,-0.50915618,6.035654025,
-14.28,30.96,26.46,160.0,-42.227386,348.83823,57.31201,0.236227911667,-3.9903362,4.90332497167,-0.6331618325,-0.722042725,5.72105845,
-11.88,31.439999,27.0,160.0,-44.53784,356.66092,63.77963,0.236227911667,-3.9903362,4.90332497167,-0.6935357,-0.953764273333,4.78796166667,
-9.179999,31.92,27.48,160.0,-45.80243,4.040792,70.21049,0.236227911667,-3.9903362,4.90332497167,-0.712268875,-0.965167075,4.34752795,
-6.18,32.579998,28.08,160.0,-46.704407,11.1682625,76.405945,0.236227911667,-3.9903362,4.90332497167,-0.408974275,-0.835663655,4.115399175,
-2.82,32.88,28.14,160.0,-47.60246,18.460644,82.55821,0.236227911667,-3.9903362,4.90332497167,0.0259617715,-0.6298020825,4.210694175,
0.53999996,33.48,28.019999,160.0,-48.065475,24.348475,87.37445,0.236227911667,-3.9903362,4.90332497167,0.0803287785,-0.4337143125,4.44129565,
3.6599998,33.78,27.779999,160.0,-47.87369,32.069347,93.51228,0.236227911667,-3.9903362,4.90332497167,-0.2712241775,-0.25137105,4.0442333,
6.54,33.96,27.539999,160.0,-46.92217,38.09123,98.11257,0.236227911667,-3.9903362,4.90332497167,-0.487063216667,-0.054570629,3.19075283333,
9.0,34.14,26.699999,160.0,-45.798634,42.304337,100.82483,0.236227911667,-3.9903362,4.90332497167,-0.52045718,0.35552357,2.430327425,
11.04,34.5,25.92,160.0,-44.838207,45.416187,101.987114,0.236227911667,-3.9903362,4.90332497167,-0.39645155,0.9721920425,1.910786475,
12.78,34.62,25.14,160.0,-44.344765,47.32509,102.03569,0.236227911667,-3.9903362,4.90332497167,-0.1383609825,1.4999796,1.52533055,
14.04,34.739998,24.359999,160.0,-44.035267,49.80415,101.99302,0.236227911667,-3.9903362,4.90332497167,0.120645886,1.43278445,1.4831808,
14.639999,34.98,23.699999,160.0,-43.95258,51.818165,101.7267,0.236227911667,-3.9903362,4.90332497167,0.1966986075,1.327715625,0.9162978575,
14.82,35.16,23.1,160.0,-44.08092,52.47223,100.905754,0.236227911667,-3.9903362,4.90332497167,0.1634064475,0.869261275,-0.0030543225,
14.759999,35.28,22.619999,160.0,-44.377987,51.368412,99.47312,0.236227911667,-3.9903362,4.90332497167,0.10629055,0.460185156667,-0.926478966667,
14.46,35.76,22.32,160.0,-44.6206,49.813408,98.092766,-5.93762,-6.205771,3.4859576,0.0785979933333,0.288735636667,-1.31254573333,
13.74,36.12,22.32,160.0,-44.97714,47.32931,95.93126,-5.66947,-4.4819455,2.2601264,0.24964027,0.605163823333,-1.9682078,
12.84,36.42,22.38,160.0,-45.797585,43.091488,91.79945,-6.244078,-5.554548,1.6472107,0.76846847,1.1630874,-2.75785296667,
11.46,36.42,22.32,160.0,-46.946312,38.43937,86.797646,-7.3549876,-7.6614456,2.6048915,1.1618657,1.6346754,-2.33717043333,
10.0199995,36.6,22.619999,160.0,-48.21018,34.944717,81.886215,-8.42759,-8.312668,3.1028855,1.10403711667,2.26345936667,-1.30684436667,
8.4,36.54,23.039999,160.0,-48.805023,33.50225,78.59148,-9.002198,-6.397307,2.1068976,0.43615778,2.68902885,-0.319482525,
6.72,36.54,23.519999,160.0,-49.18151,33.6458,75.30785,-8.159439,-5.363012,0.7661445,0.0981456833333,2.96188193333,0.714305113333,
4.98,36.54,24.06,160.0,-49.486786,35.466694,73.10995,-7.6231384,-4.673482,-0.30645782,-0.123394782,2.9639182,1.28566766667,
3.1799998,36.36,24.539999,160.0,-49.871185,38.521694,71.99596,-7.6231384,-4.673482,-0.30645782,-0.230092576667,2.61124526667,2.03703196667,
3.1799998,36.36,24.539999,160.0,-50.343433,42.418846,72.46894,-7.6231384,-4.673482,-0.30645782,-0.298916716667,1.80897566667,2.05657966667,
1.56,36.239998,24.9,160.0,-50.343433,42.418846,72.46894,-7.5848308,-3.7924154,-0.5746084,-0.298916716667,1.80897566667,2.05657966667,
0.35999998,36.239998,25.14,160.0,-50.45323,44.836445,73.42608,-7.8529816,-4.213795,0.38307226,-0.28832839,0.328645496667,1.5532267,
-0.29999998,36.36,25.38,160.0,-50.809998,47.958916,75.71732,-7.8529816,-4.213795,0.38307226,0.147218525,-0.34636059,2.04212255,
-0.29999998,36.36,25.38,160.0,-50.809998,47.958916,75.71732,-7.8529816,-4.213795,0.38307226,0.0541633836667,-0.536339666667,2.17142236667,
-0.42,36.239998,25.32,160.0,-50.809998,47.958916,75.71732,-4.711789,-2.6431987,0.6895301,-0.19058995,-0.54244834,2.0818288,
-0.29999998,36.42,25.26,160.0,-51.510326,55.811226,82.97233,-4.711789,-2.6431987,0.6895301,-0.472809693333,-0.241088146667,1.81997116667,
-0.29999998,36.42,25.26,160.0,-51.510326,55.811226,82.97233,-4.711789,-2.6431987,0.6895301,-0.472809693333,-0.241088146667,1.81997116667,
-0.29999998,36.42,25.26,160.0,-51.510326,55.811226,82.97233,-5.171476,-4.2904096,-0.5363012,-0.472809693333,-0.241088146667,1.81997116667,
1.86,37.44,24.48,160.0,-49.576984,64.00653,90.81071,-5.171476,-4.2904096,-0.5363012,-0.9101892,-0.818559416667,1.40580456667,
1.86,37.44,24.48,160.0,-48.364735,66.2397,93.46944,-5.171476,-4.2904096,-0.5363012,-1.04580133333,-0.749328013333,0.957836706667,
1.86,37.44,24.48,160.0,-48.364735,66.2397,93.46944,-4.7884035,-5.2480903,0.61291564,-1.04580133333,-0.749328013333,0.957836706667,
4.2,37.86,23.699999,160.0,-47.0252,67.369385,95.17897,-4.5202527,-7.2783732,1.4556746,-1.0608693,-0.662177923333,0.563624983333,
5.3399997,38.219997,23.279999,160.0,-56.5843,46.24793,72.28612,-4.3287168,-13.292608,3.1794999,-0.862541723333,-0.77620612,0.881682173333,
6.24,38.64,22.8,160.0,-56.24938,48.491077,74.90266,-4.8267107,-14.326903,4.9416323,-0.730594813333,-0.706974726667,1.76540056667,
7.5,38.94,22.199999,160.0,-55.88849,53.034245,79.364944,-6.244078,-12.411542,5.554548,-0.685798046667,-0.088779082,2.48011296667,
8.639999,39.18,21.42,160.0,-55.604435,58.471985,83.85035,-8.236053,-10.113108,3.715801,-0.44674612,0.28507045,2.34653713333,
9.48,39.36,20.699999,160.0,-55.262638,63.32771,87.527054,-10.189722,-9.232041,-3.4093432,-0.439415736667,0.09122254,2.30418366667,
10.38,39.36,19.74,160.0,-54.72388,68.2424,91.66016,-11.951855,-9.883265,-2.834735,-0.722042736667,-0.78760894,2.16368466667,
11.4,39.719997,18.96,160.0,-53.907288,71.3383,95.04352,-12.181698,-8.734048,-1.1875241,-1.27426495,-1.9156734,1.02869705,
12.599999,39.719997,17.82,160.0,-52.165314,72.72411,98.44763,-12.181698,-8.734048,-1.1875241,-1.86843313333,-1.4888822,0.07330383,
12.599999,39.719997,17.82,160.0,-49.76051,72.2341,99.56852,-12.181698,-8.734048,-1.1875241,-2.201252925,-0.9547823375,0.61147611525,
12.599999,39.719997,17.82,160.0,-49.76051,72.2341,99.56852,-10.726024,-11.568783,2.336741,-2.201252925,-0.9547823375,0.61147611525,
14.58,40.14,15.48,160.0,-47.07537,73.706604,101.76318,-10.955867,2.9496565,0.5746084,-1.22865365333,-0.117693375667,1.4127277,
15.299999,40.32,14.28,160.0,-45.62212,74.19322,102.23392,-13.905523,1.6472107,-1.6472107,-1.56951646667,-0.962723646667,-1.9299269,
16.08,40.44,13.139999,160.0,-44.462223,71.2818,101.26046,-15.629349,-0.9959879,-5.899313,-2.1007656,-1.88451925,-1.2614367,
17.16,40.379997,11.82,160.0,-42.52212,68.55283,101.61573,-9.768343,-1.7238252,-2.4133554,-1.1663454,-1.94540223333,-1.41069146667,
18.18,40.379997,10.98,160.0,-41.549088,65.69697,101.98427,-11.453861,-1.4939818,-3.7924154,-1.24820133333,-1.59069306667,-1.6945402,
19.08,39.96,9.96,160.0,-40.572926,62.554432,101.899216,-12.220005,-4.596867,-4.4436383,-1.01973773333,-1.57806853333,-1.74911076667,
19.859999,40.02,9.059999,160.0,-39.84078,59.670284,101.86837,-8.389283,-3.371036,-5.133168,-1.15046286667,-1.51494583333,-0.984714753333,
20.52,39.899998,8.4,160.0,-38.657385,57.706003,102.50891,-8.389283,-3.371036,-5.133168,-0.579303868,-0.876184393333,-0.742608533333,
21.359999,39.3,8.16,160.0,-38.817616,56.00152,102.57829,-8.389283,-3.371036,-5.133168,0.5687155375,-0.22846360325,-0.76022179,
21.9,38.879997,8.04,160.0,-40.05233,54.280357,101.53671,-8.389283,-3.371036,-5.133168,0.677653186667,0.0109955733333,-1.54100943333,
22.5,38.399998,7.98,160.0,-39.539986,51.65142,99.43989,-8.389283,-3.371036,-5.133168,-0.990518035,0.41905358,-1.48928945,
22.8,38.34,8.099999,160.0,-38.138897,51.08642,98.64058,-8.389283,-3.371036,-5.133168,-1.4062118,0.41691553,0.0259617725,
22.98,38.1,8.04,160.0,-37.269127,50.70387,97.68372,-8.389283,-3.371036,-5.133168,-0.32742377,0.7257079,-0.3344487175,
22.859999,38.16,8.4,160.0,-38.21408,50.062424,97.63869,-8.389283,-3.371036,-5.133168,1.45233215,-1.20218283,-0.72021014,
22.859999,37.8,8.88,160.0,-40.650005,49.132088,98.91581,-8.389283,-3.371036,-5.133168,1.704619525,-0.9532551875,-0.6142249975,
22.92,37.62,9.54,160.0,-42.27812,49.3242,99.39697,-8.389283,-3.371036,-5.133168,1.314582,-0.2959642075,-0.12156218625,
22.8,37.38,10.2,160.0,-43.695076,49.017094,99.481575,-8.389283,-3.371036,-5.133168,1.84970003333,-0.413759396667,-0.496022563333,
22.859999,36.96,10.98,160.0,-46.87037,49.391895,100.901886,-8.389283,-3.371036,-5.133168,3.20948605,-1.24952486,-0.1762346225,
22.98,36.48,12.12,160.0,-51.358017,50.772854,103.518234,-8.389283,-3.371036,-5.133168,3.80031486,-1.27817446,-0.102869705,
23.16,35.28,13.5,160.0,-55.56818,51.959827,106.17679,-8.389283,-3.371036,-5.133168,3.134146,-1.52838483333,-0.548149756667,
23.46,34.079998,15.299999,160.0,-58.88824,52.168392,107.945076,-8.389283,-3.371036,-5.133168,2.242486275,-1.0955868175,-0.72295903,
24.0,32.579998,16.619999,160.0,-60.59918,51.9983,108.546234,-8.389283,-3.371036,-5.133168,1.64444925,-0.5904012625,-0.6469063025,
24.42,31.32,18.18,160.0,-62.744663,51.859333,109.03336,-8.389283,-3.371036,-5.133168,1.6354899,-0.381179913333,-0.555072876667,
24.539999,29.88,19.68,160.0,-64.62526,51.859554,109.317604,-8.389283,-3.371036,-5.133168,1.30725165,-0.14110987375,-0.4343252,
24.72,28.5,21.06,160.0,-65.941246,51.931038,109.43698,-8.389283,-3.371036,-5.133168,0.8439103275,0.04062253825,-0.284052335,
25.08,27.24,22.14,160.0,-66.265366,51.303074,108.98866,-8.389283,-3.371036,-5.133168,-0.2489275875,-0.31215215575,-0.4761694575,
25.38,26.039999,23.279999,10.0,-66.15467,48.890854,107.31516,-8.389283,-3.371036,-5.133168,-0.5326744925,-0.4996877825,-1.2947289,
25.439999,25.26,24.06,10.0,-65.894936,44.04662,103.2184,-8.389283,-3.371036,-5.133168,-0.61758476,0.1747074665,-1.985006625,
25.14,25.019999,24.779999,10.0,-65.804504,37.986427,97.30008,-8.389283,-3.371036,-5.133168,-0.0681114755,0.5928447325,-1.370476175,
24.72,24.779999,25.38,10.0,-65.9832,35.059204,93.6827,-8.389283,-3.371036,-5.133168,0.00122173166667,0.940732476667,-0.961094643333,
24.06,24.9,25.859999,10.0,-65.73225,30.246767,88.46077,-8.389283,-3.371036,-5.133168,-0.4331034475,0.4367686625,-2.104736175,
23.519999,25.08,26.279999,10.0,-64.83976,24.569517,83.17938,-8.389283,-3.371036,-5.133168,-1.171334125,-0.204028977,-3.75895945,
22.26,25.199999,26.939999,10.0,-62.200386,12.079654,72.67217,-8.389283,-3.371036,-5.133168,-0.49785517325,-0.712879745,-6.2836653,
20.64,25.439999,27.9,10.0,-59.269154,358.58585,61.442043,-8.389283,-3.371036,-5.133168,-0.0363464835,0.1362229575,-4.45106965,
18.66,25.92,28.439999,10.0,-56.763447,351.71686,55.243988,-8.389283,-3.371036,-5.133168,-0.4187481175,0.349414915,-3.00392985,
16.619999,26.279999,29.22,10.0,-54.15437,347.4696,51.251396,-8.389283,-3.371036,-5.133168,-0.68620531,0.630820166667,-2.71631403333,
14.759999,26.76,29.88,10.0,-52.124866,345.1692,48.72933,-8.389283,-3.371036,-5.133168,-0.7654141525,0.8713992775,-2.48988675,
12.36,27.359999,30.72,10.0,-49.52534,342.74216,45.71909,-8.389283,-3.371036,-5.133168,-0.6093380825,1.09314335,-2.2504276,
9.9,27.66,31.38,10.0,-47.104683,340.7719,42.877926,-8.389283,-3.371036,-5.133168,-0.791375915,1.1609494,-2.0088304,
7.5,28.26,31.92,10.0,-44.70356,339.7548,40.81098,-8.389283,-3.371036,-5.133168,-0.9792169625,1.01281455,-1.674992525,
5.58,28.859999,32.04,10.0,-42.440453,339.21793,39.30192,-8.389283,-3.371036,-5.133168,-0.921184805,0.9172141625,-1.613600525,
3.6,29.699999,31.8,10.0,-40.780464,338.86276,38.233223,-8.389283,-3.371036,-5.133168,-1.00507694667,1.0095566,-1.51250233333,
1.86,30.66,31.74,10.0,-38.73563,338.92667,37.053215,-8.389283,-3.371036,-5.133168,-1.25257915,0.951117195,-0.887892635,
0.24,31.56,31.14,10.0,-36.99457,339.85022,36.696938,-8.389283,-3.371036,-5.133168,-1.423316025,0.38698314,-0.572686155,
-1.02,32.399998,30.48,10.0,-35.583694,341.24728,37.35436,-8.389283,-3.371036,-5.133168,-1.518610975,-0.2419026335,-0.095294981,
-1.92,33.12,29.64,10.0,-34.39838,342.92123,38.866802,-8.389283,-3.371036,-5.133168,-1.36742185,-0.691804895,-0.124311075,
-2.28,34.26,28.98,10.0,-33.54409,343.91077,40.118603,-8.389283,-3.371036,-5.133168,-1.37200335,-0.882089405,-0.018020524,
-2.52,35.28,28.08,10.0,-32.408867,345.4285,42.04443,-8.389283,-3.371036,-5.133168,-1.62693776667,-0.94561938,-0.0158824963333,
-2.52,35.28,28.08,10.0,-32.408867,345.4285,42.04443,-8.389283,-3.371036,-5.133168,-1.62693776667,-0.94561938,-0.0158824963333,
-2.52,35.28,28.08,10.0,-31.057022,347.03815,44.01819,-5.5162406,-1.4173675,3.064578,-1.38299892,-0.886243292,-0.04447099,
-2.52,35.28,28.08,10.0,-31.057022,347.03815,44.01819,-5.5162406,-1.4173675,3.064578,-1.38299892,-0.886243292,-0.04447099,
-1.3199999,37.92,26.099998,10.0,-29.6801925,349.161195,46.6675685,-5.5162406,-1.4173675,3.064578,-1.23674035714,-0.851546158571,0.74316121,
-0.29999998,38.7,25.5,10.0,-29.14657,351.8135,49.28935,-5.5162406,-1.4173675,3.064578,-1.236391275,-0.748920785,1.098946575,
0.65999997,39.239998,25.199999,10.0,-28.855137,353.90128,51.16322,-5.5162406,-1.4173675,3.064578,-0.454891003333,-0.39421171,0.42882739,
1.92,39.719997,25.38,10.0,-28.787209,354.3378,51.79181,-9.232041,-8.542512,8.121132,0.127467216667,-0.248418536667,-0.311948516667,
3.0,40.079998,25.38,40.0,-28.700249,353.7544,51.78479,-9.232041,-8.542512,8.121132,0.415082945,-0.1325577575,-0.4538728825,
3.9599998,40.14,25.5,40.0,-28.759441,352.72714,51.486046,-9.232041,-8.542512,8.121132,0.530536465,-0.240375475,-0.7446447375,
4.62,40.26,25.8,40.0,-28.69011,351.74966,51.251255,-9.232041,-8.542512,8.121132,0.5736024525,-0.09498954825,-0.554054785,
5.22,40.14,25.92,40.0,-28.867918,350.70508,50.849236,-9.232041,-8.542512,8.121132,0.8173376875,0.0079412475,0.05528330675,
5.4,39.78,26.039999,40.0,-29.785461,350.03897,50.49678,-9.232041,-8.542512,8.121132,1.6245961,0.45753807,0.4101960225,
5.22,39.36,26.64,40.0,-31.746098,348.92056,49.33654,-9.232041,-8.542512,8.121132,2.6136888,0.629598446667,0.661363413333,
5.22,38.7,27.539999,40.0,-34.895058,346.95676,47.534748,-9.232041,-8.542512,8.121132,3.1404583,0.5354233975,0.9358455675,
5.22,38.7,27.539999,40.0,-39.44891,344.002765,45.081154,-6.5122285,-2.9113493,-1.2258313,3.58761158333,0.245771451667,0.716137705,
5.22,38.7,27.539999,40.0,-44.52224,336.11716,39.79198,-6.5122285,-2.9113493,-1.2258313,5.220454425,-0.4905248,-1.4978416,
4.56,34.32,31.38,40.0,-44.52224,336.11716,39.79198,-6.5122285,-2.9113493,-1.2258313,5.2619934,-1.4501941,-2.9639182,
4.56,34.32,31.38,40.0,-45.523212,326.36948,34.460667,-1.4556746,-7.3166804,3.6774938,3.6383134,-1.61451685,-2.85396235,
4.56,34.32,31.38,40.0,-45.287434,320.85187,32.14311,-0.7278373,-6.5122285,1.340753,1.88594463333,-1.12114135,-1.27793005,
4.56,34.32,31.38,40.0,-45.467545,319.73227,32.18749,-2.2218192,-4.673482,1.5705963,0.618501065,-0.967915975,-0.193949715,
4.56,34.32,31.38,40.0,-45.30304,319.09814,33.220825,-3.8307228,-5.707777,0.61291564,0.06078109,-1.337489425,-0.34666603,
4.56,34.32,31.38,40.0,-44.982,319.50287,35.09546,-5.0182467,-6.397307,1.3790601,-0.6881397125,-1.2889257,0.11026117625,
5.16,25.26,39.78,40.0,-44.03197,321.72464,38.386883,-4.367024,-7.5848308,1.532289,-2.3990714,-1.51331683333,0.15149458,
5.8199997,24.42,40.68,40.0,-41.64875,326.03915,43.30897,-4.175488,-9.768343,0.34476504,-3.98447033333,-1.64811443333,0.467515536667,
5.8199997,24.42,40.68,40.0,-39.46861,330.29718,47.43766,-2.0685902,-9.270349,0.45968673,-4.407392675,-1.304197275,1.812437175,
7.62,25.92,39.899998,40.0,-37.42564,337.9274,53.466984,-7.086837,-4.8267107,1.0342951,-4.2320742,-0.57421335,4.2497895,
9.24,27.539999,38.64,40.0,-36.14691,346.37262,59.435696,-8.772355,-3.7924154,0.91937345,-3.65093803333,-1.2258029,3.49007676667,
10.86,29.16,36.899998,40.0,-34.274315,353.07346,65.418274,-8.772355,-3.7924154,0.91937345,-3.44527996667,-1.9144517,3.7494908,
12.84,31.26,34.92,40.0,-32.320793,0.0031501215,71.64458,-8.772355,-3.7924154,0.91937345,-3.1712051,-2.07694183333,3.79673103333,
12.84,31.26,34.92,40.0,-32.320793,0.0031501215,71.64458,-10.0748005,-5.363012,1.9919758,-3.1712051,-2.07694183333,3.79673103333,
12.84,31.26,34.92,40.0,-32.320793,0.0031501215,71.64458,-10.0748005,-5.363012,1.9919758,-3.1712051,-2.07694183333,3.79673103333,
12.84,31.26,34.92,40.0,-32.320793,0.0031501215,71.64458,-10.0748005,-5.363012,1.9919758,-3.1712051,-2.07694183333,3.79673103333,
12.84,31.26,34.92,40.0,-29.9326826667,9.09131446667,80.8222746667,-8.523358,-5.9376202,1.2641385,-1.16730792909,-1.81715748818,3.38119465455,
22.619999,36.0,23.88,40.0,-29.9326826667,9.09131446667,80.8222746667,-8.523358,-5.9376202,1.2641385,-0.54733527,-0.83077675,2.9236012,
22.619999,36.0,23.88,40.0,-29.141987,18.061176,88.39751,-9.653421,-3.0262709,-1.0342951,-0.384845105,-0.69394292,1.5833627,
22.619999,36.0,23.88,40.0,-28.902533,19.380428,90.10265,-9.921572,-4.2521024,-1.8004397,-0.05100724975,-1.037860025,0.5430592,
22.619999,36.0,23.88,40.0,-29.074356,19.796316,91.41414,-8.734048,-6.895301,-2.7964275,0.48044551,-1.2770138,0.71929382,
22.619999,36.0,23.88,40.0,-29.798342,21.291124,93.61076,-8.734048,-6.895301,-2.7964275,0.7855726825,-0.957225835,1.531439175,
29.699999,35.219997,16.38,40.0,-29.798342,21.291124,93.61076,-8.734048,-6.895301,-2.7964275,0.74097952,-0.567493815,1.8710802,
29.699999,35.219997,16.38,40.0,-29.798342,21.291124,93.61076,-10.726024,-7.3549876,-3.8307228,0.417220965,-0.1313360285,1.57725405,
29.699999,35.219997,16.38,40.0,-30.751373,25.82867,96.91477,-10.802638,-12.181698,-2.336741,-0.06149377,0.359188756667,0.979420613333,
29.699999,35.219997,16.38,40.0,-30.35631,26.056793,96.36743,-10.802638,-12.181698,-2.336741,-0.516792005,0.6264423,-0.3640756825,
29.699999,35.219997,16.38,40.0,-30.35631,26.056793,96.36743,-10.036493,-9.730036,-2.030283,-0.516792005,0.6264423,-0.3640756825,
31.679998,34.68,12.84,40.0,-29.298863,25.926054,94.95614,-10.036493,-9.730036,-2.030283,-0.589118452,1.17457168,0.362853954,
31.5,34.62,12.48,40.0,-29.298863,25.926054,94.95614,-10.036493,-9.730036,-2.030283,-0.589118452,1.17457168,0.362853954,
31.5,34.62,12.48,40.0,-29.919872,25.560957,92.16049,-9.921572,-4.673482,-2.2218192,1.058995966,1.6483588,-0.724974854,
31.5,34.62,12.48,40.0,-31.219517,24.357378,89.51163,-9.921572,-4.673482,-2.2218192,1.011898275,1.817934975,-1.004873335,
30.72,35.579998,12.9,40.0,-30.9265,17.699446,93.64716,-9.921572,-4.673482,-2.2218192,0.981049583333,1.59110033333,-0.291179114333,
30.72,35.579998,12.9,40.0,-30.9265,17.699446,93.64716,-12.220005,-4.213795,-3.1794999,0.981049583333,1.59110033333,-0.291179114333,
30.72,35.579998,12.9,40.0,-31.71681,17.661346,92.21033,-13.292608,-4.175488,-4.865018,0.407650746667,1.74015146667,-0.133983112,
30.72,35.579998,12.9,40.0,-32.09282,17.36756,89.99873,-13.292608,-4.175488,-4.865018,0.2718350325,1.536326125,-0.2758056475,
27.24,37.14,14.16,40.0,-32.09282,17.36756,89.99873,-13.292608,-4.175488,-4.865018,0.5693264,1.5283848,-0.11484267,
27.24,37.14,14.16,10.0,-27.480558,15.399722,92.11041,-9.615114,-1.9919758,-0.7661445,1.14781575,1.87963235,0.13805555,
25.92,37.739998,15.12,10.0,-28.952658,15.558136,89.93624,-6.703765,-2.6431987,-2.2601264,1.58254823333,1.8387044,-0.106697795333,
24.24,38.34,16.14,10.0,-30.831861,15.040125,87.47145,-6.703765,-2.6431987,-2.2601264,1.27467216667,1.89571843333,-1.06046205667,
22.32,39.0,16.92,10.0,-31.835865,13.766154,85.172676,-6.703765,-2.6431987,-2.2601264,0.77213367,1.30562266667,-1.1472049,
22.32,39.0,16.92,10.0,-31.835865,13.766154,85.172676,-8.772355,-5.5162406,-0.7278373,0.77213367,1.30562266667,-1.1472049,
22.32,39.0,16.92,10.0,-32.527378,12.155131,82.922745,-7.8529816,-4.55856,-1.2641385,0.543262836667,0.91059647,-0.811229056667,
18.48,39.84,17.699999,10.0,-33.019596,10.970661,81.208595,-6.742072,-3.5625722,-0.8810662,0.388917546667,0.968017766667,-0.650775126667,
16.8,40.32,18.48,10.0,-33.33433,9.956488,79.45602,-4.405331,-1.340753,-0.15322891,0.434121563333,1.1178834,-0.62959843,
15.24,40.86,19.02,10.0,-33.763855,8.87738,77.50691,-3.9073372,-2.9879637,-0.11492168,0.69231394,1.0527244,-0.598240693333,
15.24,40.86,19.02,10.0,-34.267017,8.083929,76.15318,-3.9073372,-2.9879637,-0.11492168,0.71878477,0.85032441,-0.43289984,
12.12,41.1,19.8,10.0,-34.267017,8.083929,76.15318,-4.9799395,-2.834735,0.49799395,0.71878477,0.85032441,-0.43289984,
12.12,41.1,19.8,10.0,-34.993416,7.263653,74.79673,-3.5242648,-3.371036,0.11492168,0.66706485,0.34167729,-0.2761111,
12.12,41.1,19.8,40.0,-35.671074,6.595954,74.00179,-3.5242648,-3.371036,0.11492168,0.4401284075,0.11606439575,-0.1890627925,
10.08,41.52,20.52,40.0,-36.07195,6.1854944,73.70203,-3.5242648,-3.371036,0.11492168,0.0370591606667,-0.34615697,0.0219911486667,
9.42,41.7,20.58,40.0,-36.07195,6.1854944,73.70203,-3.5242648,-3.371036,0.11492168,0.0370591606667,-0.34615697,0.0219911486667,
9.42,41.7,20.58,40.0,-35.95902,6.329746,74.40157,-5.209783,-2.681506,1.9536686,-0.515977513333,-0.866614163333,0.180001623333,
9.42,41.7,20.58,40.0,-35.52019,6.6640015,75.41231,-5.209783,-2.681506,1.9536686,-0.6572910075,-0.86101455,0.1597412625,
8.88,42.059998,21.0,40.0,-35.52019,6.6640015,75.41231,-5.209783,-2.681506,1.9536686,-0.71959925,-0.7501425,0.06963864,
8.88,42.059998,21.0,40.0,-35.52019,6.6640015,75.41231,-8.350976,-7.73806,3.8307228,-0.739146973333,-0.658512753333,-0.13724106,
8.88,42.059998,21.0,40.0,-33.154434,8.149339,73.32747,-8.350976,-7.73806,3.8307228,-0.4547891725,-0.454178305,-0.5381722775,
8.82,42.239998,20.939999,40.0,-32.51472,7.4635878,73.488716,-8.350976,-7.73806,3.8307228,0.161675671,-0.2537127,-0.9008226,
8.94,42.48,21.119999,40.0,-32.51472,7.4635878,73.488716,-8.350976,-7.73806,3.8307228,0.161675671,-0.2537127,-0.9008226,
8.94,42.48,21.119999,40.0,-32.577435,5.9996014,72.8892,-12.028469,-11.9135475,5.171476,0.795346553333,0.253712703333,-1.00263345,
8.94,42.48,21.119999,40.0,-33.020638,4.703221,71.914375,-12.028469,-11.9135475,5.171476,0.9309586125,0.542142895,-1.0693195875,
9.12,42.42,21.24,40.0,-33.659958,2.7414675,70.187416,-12.028469,-11.9135475,5.171476,0.930958625,0.41233404,-1.251662875,
9.12,42.42,21.24,10.0,-33.659958,2.7414675,70.187416,-12.028469,-11.9135475,5.171476,0.930958625,0.41233404,-1.251662875,
9.12,42.42,21.24,10.0,-36.72482,1.122872,60.49744,-9.80665,-7.1634517,3.217807,0.6383541825,0.043676863625,-0.9673051,
9.12,42.42,21.24,10.0,-36.781605,359.45874,59.505356,-9.80665,-7.1634517,3.217807,0.130725165,0.010995575,-0.7119634475,
8.04,41.94,22.38,10.0,-36.36876,358.49554,58.876575,-9.80665,-7.1634517,3.217807,-0.5244278075,0.496938865,-0.813367075,
8.04,41.94,22.38,10.0,-36.36876,358.49554,58.876575,-13.254301,-5.861006,0.19153613,-0.5244278075,0.496938865,-0.813367075,
8.04,41.94,22.38,10.0,-36.36876,358.49554,58.876575,-6.3206925,-2.1452048,-1.0726024,-0.465072073333,1.02095941667,-0.391768246667,
7.08,41.64,23.519999,10.0,-34.85347,357.86807,56.879032,-4.55856,-0.5363012,-0.5363012,-0.107919523333,0.714712343333,0.34534249,
6.6,41.46,23.64,10.0,-34.92624,358.35318,56.34107,-5.592855,-2.4133554,-1.7238252,-0.502945713333,-0.34900767,0.37466402,
6.6,41.46,23.64,10.0,-34.667408,359.19626,57.236286,-5.2863975,-2.6048915,-3.2944214,-0.757472916667,-0.763174316667,0.23905194,
6.06,41.64,23.939999,10.0,-34.04544,0.06681762,58.826195,-5.2863975,-2.6048915,-3.2944214,-0.694553795,-1.18385685,0.261450335,
6.06,41.64,23.939999,10.0,-33.69553,0.60556537,60.24517,-5.2863975,-2.6048915,-3.2944214,-0.509767055,-1.2678508,0.2987130975,
6.06,41.64,23.939999,10.0,-33.29221,1.4062434,62.342354,-5.8226986,-4.4436383,-2.336741,-0.6667594125,-1.63070475,0.2367102825,
6.06,41.64,23.939999,40.0,-32.634228,2.0732408,64.87098,-5.9759274,-4.673482,-3.4093432,-0.7489208,-1.94214423333,0.21013765,
6.06,41.64,23.939999,40.0,-32.634228,2.0732408,64.87098,-4.596867,-3.9839516,-2.9496565,-0.90163708,-1.84603476667,-0.179594376667,
7.9199996,43.02,21.42,40.0,-32.634228,2.0732408,64.87098,-4.596867,-3.9839516,-2.9496565,-1.0506883,-1.455081,-0.27122417,
7.9199996,43.02,21.42,40.0,-30.386164,2.9765146,69.05852,-4.596867,-3.9839516,-2.9496565,-1.2507466,-0.744950185,0.02748893775,
7.9199996,43.02,21.42,40.0,-29.11542,3.5622578,69.77761,-5.8226986,-3.715801,-1.4556746,-1.882992075,-0.5781839425,-0.27580567,
7.9199996,43.02,21.42,40.0,-29.11542,3.5622578,69.77761,-5.8226986,-3.715801,-1.4556746,-1.882992075,-0.5781839425,-0.27580567,
11.16,44.28,18.18,40.0,-26.43415,3.8070588,70.9209,-5.8226986,-3.715801,-1.4556746,-2.8273898,-1.2229522,-0.5149594075,
12.719999,44.399998,16.44,40.0,-22.63287,5.0958858,73.02507,-5.8226986,-3.715801,-1.4556746,-3.683517475,-1.482875375,0.0479529125,
13.799999,44.46,14.759999,40.0,-18.331123,5.799127,75.277985,-5.8226986,-3.715801,-1.4556746,-3.17130695,-1.748907175,-0.848491835,
15.12,44.52,12.719999,40.0,-14.676332,5.748407,77.39263,-5.8226986,-3.715801,-1.4556746,-2.66825936667,-1.8220074,-0.507832633333,
16.44,44.46,10.679999,40.0,-12.428135,5.8855147,79.219154,-5.8226986,-3.715801,-1.4556746,-2.17223685,-2.010357525,-0.00366518825,
17.52,44.34,8.76,40.0,-10.218556,6.385939,81.63154,-5.8226986,-3.715801,-1.4556746,-1.417512825,-1.699732525,0.0164933615,
19.08,44.04,6.96,40.0,-8.71467,6.597367,83.63921,-5.8226986,-3.715801,-1.4556746,-1.006400475,-1.66521865,0.0974330095,
20.4,43.62,5.4,40.0,-7.763709,6.9961457,85.96068,-5.8226986,-3.715801,-1.4556746,-0.8069529875,-2.058310475,0.9190467675,
21.359999,43.26,3.54,40.0,-6.3618326,8.51224,88.68808,-5.8226986,-3.715801,-1.4556746,-1.9504927,-1.966069775,0.2837469075,
22.5,42.66,1.9799999,40.0,-4.4618945,8.184302,90.130356,-5.8226986,-3.715801,-1.4556746,-2.69187956667,-0.521678913333,-0.207694175,
24.18,42.059998,0.42,40.0,-1.2280848,8.067578,91.23053,-5.8226986,-3.715801,-1.4556746,-1.886657375,-1.918422325,-0.0757472875,
25.5,41.16,-0.42,40.0,0.31143427,7.8010693,93.93118,-5.8226986,-3.715801,-1.4556746,-0.84879725,-2.2867741,-0.522900645,
26.76,40.32,-1.26,40.0,1.1127466,6.761897,96.29748,-5.8226986,-3.715801,-1.4556746,-0.50115386,-0.6172182108,-0.190101264,
26.76,40.32,-1.26,40.0,1.6491543,7.006101,96.51256,-5.8226986,-3.715801,-1.4556746,-0.276518336667,0.487470456667,1.0861184,
26.76,40.32,-1.26,40.0,1.6491543,7.006101,96.51256,-14.020445,0.4213795,-4.865018,-0.276518336667,0.487470456667,1.0861184,
28.38,39.0,-3.24,40.0,2.0030823,7.834278,96.0715,-14.020445,0.4213795,-4.865018,-0.442673686667,0.029321528,-0.470366231,
28.38,39.0,-3.24,90.0,2.449721,7.227564,96.080635,-14.020445,0.4213795,-4.865018,-0.09285151175,-0.4065308225,-1.54304565,
28.38,39.0,-3.24,90.0,2.217703,5.306562,96.65189,-15.629349,-4.596867,3.6391866,0.47891834,-0.23335053,-1.6481144,
29.46,37.98,-4.2,90.0,2.217703,5.306562,96.65189,-15.629349,-4.596867,3.6391866,0.91751957,0.26145032,-1.0897835,
29.58,37.92,-4.14,90.0,1.1036996,4.165534,96.395645,-15.629349,-4.596867,3.6391866,0.43707408675,0.845742925,0.0155770625,
29.58,37.92,-4.14,90.0,1.042794,4.8218336,94.970924,-15.629349,-4.596867,3.6391866,0.08735372925,1.747990875,0.5968153325,
29.58,37.92,-4.14,90.0,0.92293334,5.1420093,93.194855,-10.036493,-0.11492168,-0.2681506,0.22357668,2.3212879,-0.042760566,
28.56,38.46,-4.3199997,90.0,0.92293334,5.1420093,93.194855,-10.036493,-0.11492168,-0.2681506,0.43004914,2.747672,-0.30543263,
28.56,38.46,-4.3199997,90.0,0.46147498,4.8319764,90.00059,-10.036493,-0.11492168,-0.2681506,0.30543262,3.465133075,-0.753502285,
28.56,38.46,-4.3199997,90.0,0.1939422,3.7844949,85.593155,-7.73806,3.4859576,-1.8387469,-0.13316862575,5.073236075,-1.0290025075,
28.56,38.46,-4.3199997,90.0,0.1939422,3.7844949,85.593155,-17.96609,3.3327289,-3.3327289,-0.13316862575,5.073236075,-1.0290025075,
24.0,41.34,-3.4199998,90.0,0.5205491,2.6652288,79.41463,-17.96609,3.3327289,-3.3327289,0.0757472935,4.604702,-0.270613305,
24.0,41.34,-3.4199998,90.0,0.34406942,2.6546273,74.04734,-17.96609,3.3327289,-3.3327289,0.2968805025,3.754377725,1.453859275,
24.0,41.34,-3.4199998,90.0,0.34406942,2.6546273,74.04734,-15.131354,3.0262709,0.2681506,0.2968805025,3.754377725,1.453859275,
19.14,43.8,-3.24,90.0,-0.47995895,4.364751,70.90533,-15.131354,3.0262709,0.2681506,0.151494583333,2.44020303333,2.96921233333,
19.14,43.8,-3.24,90.0,-1.9052168,7.56492,68.006294,-13.254301,2.0685902,0.9959879,0.336892175,2.123367525,2.001805425,
19.14,43.8,-3.24,90.0,-3.1495469,9.369885,65.47412,-11.453861,0.80445176,-7.3166804,0.257479705,2.798373675,-0.76541417925,
19.14,43.8,-3.24,90.0,-2.6194108,7.824975,61.992542,-10.534488,-3.1411927,-2.6048915,-0.06444628175,2.5308147,-4.576602475,
19.14,43.8,-3.24,90.0,-2.6194108,7.824975,61.992542,-8.465898,-6.8569937,5.9759274,-0.06444628175,2.5308147,-4.576602475,
7.8599997,47.7,-3.78,90.0,0.58664945,1.92974493,57.7715215,-8.465898,-6.8569937,5.9759274,0.60882903,2.51757936667,-1.8024597,
7.8599997,47.7,-3.78,90.0,0.58664945,1.92974493,57.7715215,-8.465898,-6.8569937,5.9759274,1.15209186667,2.19504243333,0.103032603333,
7.8599997,47.7,-3.78,90.0,0.58664945,1.92974493,57.7715215,-6.703765,-0.8810662,-3.4476504,1.15209186667,2.19504243333,0.103032603333,
3.3,48.6,-4.62,90.0,-0.13782041,0.07220014,54.01422,-6.703765,-0.8810662,-3.4476504,1.3553064,1.91037923333,-1.12277033333,
3.3,48.6,-4.62,90.0,-0.6171489,358.02573,51.71931,-6.703765,-0.8810662,-3.4476504,1.233031475,1.559233525,-2.1917845,
3.3,48.6,-4.62,90.0,-0.6171489,358.02573,51.71931,-4.3287168,-1.0342951,-0.7661445,1.233031475,1.559233525,-2.1917845,
0.59999996,49.86,-4.74,90.0,-0.019954398,354.99988,49.898468,-4.3287168,-1.0342951,-0.7661445,0.9887872,1.11910513333,-2.61898293333,
0.59999996,49.86,-4.74,90.0,1.67300155,350.57075,48.2567105,-4.3287168,-1.0342951,-0.7661445,0.94745199,0.8274169625,-2.833192975,
0.59999996,49.86,-4.74,90.0,1.67300155,350.57075,48.2567105,-1.6472107,1.5705963,-1.2258313,0.864577936667,0.465479333333,-2.992018,
0.59999996,49.86,-4.74,90.0,3.8533382,345.95636,47.554348,-1.0726024,2.030283,-0.5363012,0.839634275,0.04612032475,-2.66031815,
0.59999996,49.86,-4.74,90.0,5.193497,342.96906,47.841007,-0.80445176,1.6089035,0.34476504,0.8775079325,-0.664621375,-1.758681025,
0.59999996,49.86,-4.74,90.0,5.709079,340.77167,48.99991,-1.685518,-0.45968673,3.6391866,0.9743300725,-1.56014985,-0.6866125425,
0.59999996,49.86,-4.74,90.0,4.6574798,339.38389,52.2458705,-3.86903,0.45968673,7.1634517,1.119716,-2.366186525,0.59070668825,
0.59999996,49.86,-4.74,90.0,2.094941,340.06744,56.093296,-9.002198,1.9153614,12.679692,0.9202685,-2.1945334,1.53754785,
0.59999996,49.86,-4.74,90.0,2.094941,340.06744,56.093296,-18.08101,1.6089035,17.085024,0.10588331,-0.590503037333,0.70616021,
0.59999996,49.86,-4.74,90.0,1.5345709,340.623,56.787113,-18.885464,-4.673482,6.3589997,-0.03543018825,0.99204515,-1.13834738,
0.59999996,49.86,-4.74,90.0,2.3506055,339.2904,55.552265,-10.228029,0.076614454,7.469909,0.5122104975,1.26418565,-1.869247625,
0.59999996,49.86,-4.74,90.0,3.69063025,335.89851,53.7997725,-4.711789,1.3790601,8.00621,0.5583308325,0.981355025,-2.540894,
0.59999996,49.86,-4.74,90.0,5.450076,331.91284,53.21395,-9.078813,3.4476504,6.0142345,0.5503895825,0.29321532125,-2.510656125,
0.59999996,49.86,-4.74,90.0,6.591346,329.883,53.40267,-12.411542,-1.0342951,10.802638,0.2223549525,0.0836885385,-1.77028745,
0.59999996,49.86,-4.74,90.0,6.22699,329.5295,52.680134,-18.272547,-3.8307228,8.00621,0.42394048,0.65484754,0.2858849475,
0.59999996,49.86,-4.74,90.0,5.5520372,330.5255,51.986298,-18.732235,3.064578,0.15322891,-0.13897184375,0.5360342575,0.89583388,
0.59999996,49.86,-4.74,90.0,5.435794,330.60504,51.62184,-3.4476504,5.4779334,-3.6774938,0.154345286667,0.262264796667,0.0912225456667,
0.59999996,49.86,-4.74,90.0,4.9309893,330.78165,52.79764,-2.183512,5.66947,0.5363012,0.1750129,-1.138958225,0.4810563875,
0.59999996,49.86,-4.74,90.0,3.9408617,332.8665,54.726604,-4.673482,0.15322891,-3.0262709,-0.4001167475,-1.798387275,2.200947425,
0.59999996,49.86,-4.74,90.0,1.720879,337.33392,57.340603,-8.121132,-1.340753,-7.469909,-0.5534439275,-2.379320125,4.23299065,
0.59999996,49.86,-4.74,90.0,-0.07025876,342.1665,60.128662,-11.990162,-3.0262709,-1.2641385,-0.8674286525,-2.330145425,4.136168525,
0.59999996,49.86,-4.74,90.0,-0.6176041,345.40805,62.20656,-12.334928,-3.7541082,-1.6089035,-1.25675343333,-2.2642739,3.33328793333,
0.59999996,49.86,-4.74,90.0,-0.5234,349.03934,65.25441,-12.220005,-3.6774938,-3.4093432,-1.412015025,-2.5103507,2.5057692,
0.59999996,49.86,-4.74,90.0,0.23498948,350.31668,68.039986,-12.641385,-2.873042,-3.4476504,-0.903164235,-2.227520125,0.474642295,
0.59999996,49.86,-4.74,90.0,0.23498948,350.31668,68.039986,-12.641385,-2.873042,-3.4476504,-0.903164235,-2.227520125,0.474642295,
10.62,49.68,4.3199997,90.0,0.43312478,349.751,70.519104,-12.641385,-2.873042,-3.4476504,0.2276491155,-2.1121683,-0.458556166667,
11.94,48.84,3.06,90.0,0.06235153,349.19156,73.250015,-12.641385,-2.873042,-3.4476504,0.4169155225,-2.3121249,-0.3839288025,
13.08,47.76,1.9799999,90.0,0.98994684,348.60233,76.57072,-12.641385,-2.873042,-3.4476504,0.225409275,-2.179261675,0.0647517225,
14.16,46.92,1.26,90.0,0.7082886,348.78745,79.170044,-12.641385,-2.873042,-3.4476504,0.0802269676667,-1.8916461,0.8246681,
15.179999,45.84,1.02,90.0,0.45581535,349.8287,81.3667,-12.641385,-2.873042,-3.4476504,0.0161879285,-1.69056955,1.1814134125,
16.199999,44.879997,0.96,90.0,0.22422458,351.61557,83.36042,-12.641385,-2.873042,-3.4476504,-0.04438954,-1.5719599,2.3526457,
16.199999,44.879997,0.96,90.0,0.22422458,351.61557,83.36042,-12.641385,-2.873042,-3.4476504,-0.04438954,-1.5719599,2.3526457,
17.4,44.219997,1.0799999,90.0,-0.006403089,354.78995,85.23664,-7.086837,0.076614454,-4.903325,-0.19832758,-1.47910836667,3.26324206667,
18.539999,43.44,0.84,90.0,-0.01169275,357.75107,86.57335,-7.8529816,0.15322891,-4.903325,-0.399913113333,-1.17082506667,2.8445958,
19.74,42.84,0.48,90.0,0.30487373,1.1640556,87.99559,-9.040505,-0.038307227,-2.719813,-0.553851166667,-0.965167053333,1.48806773333,
20.699999,42.12,-0.24,90.0,0.9215889,2.951153,89.17986,-10.91756,-0.30645782,-0.5363012,-0.689056025,-1.2644911,0.04703662,
21.72,41.7,-0.9,90.0,1.7604958,2.880988,90.752235,-10.91756,-0.30645782,-0.5363012,-0.739146933333,-1.41557836667,-0.338826596667,
21.72,41.7,-0.9,90.0,2.6370618,2.7468174,92.48709,-10.91756,-0.30645782,-0.5363012,-0.64690629,-1.4083498,0.8240572125,
21.72,41.7,-0.9,90.0,2.6370618,2.7468174,92.48709,-10.113108,-4.098873,2.681506,-0.64690629,-1.4083498,0.8240572125,
23.699999,40.5,-2.34,90.0,3.2241547,3.845078,93.680305,-11.645397,-2.2218192,-0.80445176,-0.206065205333,-0.913447166667,1.89001703333,
24.48,40.14,-3.36,90.0,3.6343963,6.017405,94.6672,-13.254301,-0.5746084,-1.7621324,-0.00244346,-0.519235456667,1.05272443333,
25.14,39.48,-4.3199997,90.0,3.7615092,7.3119845,95.241905,-13.40753,-0.6895301,-1.532289,-0.223576686667,-0.5045747,0.943583166667,
25.56,39.0,-4.68,90.0,4.1275544,8.417098,95.77682,-13.40753,-0.6895301,-1.532289,-0.26267205,-0.219911475,0.92851518,
25.56,39.0,-4.68,90.0,4.53953,9.427422,95.92754,-13.40753,-0.6895301,-1.532289,-0.26206119,0.02871066775,0.6860016725,
25.56,39.0,-4.68,90.0,4.53953,9.427422,95.92754,-14.326903,-2.3750482,-0.076614454,-0.26206119,0.02871066775,0.6860016725,
26.279999,38.52,-5.7599998,90.0,4.8384457,9.960906,95.815735,-15.05474,-4.8267107,0.19153613,-0.105883307667,0.22968533,0.434936043333,
26.279999,38.28,-6.2999997,90.0,5.0135026,10.459172,95.48719,-16.203957,-3.5242648,0.6895301,0.166969836667,0.899600886667,-0.0122173073333,
26.279999,38.579998,-6.72,90.0,4.8050275,10.4436865,94.42024,-15.7825775,-2.1068976,1.3024458,0.478103866667,1.63426816667,-0.598647933333,
25.92,38.76,-6.8999996,90.0,4.191048,9.759171,92.51356,-12.641385,-0.038307227,1.4173675,0.6524041,2.43898136667,-0.71104717,
25.199999,39.42,-6.72,90.0,3.3925374,8.89644,89.64177,-9.883265,4.903325,0.22984336,0.5907067,3.29928315,-0.92118475,
23.939999,40.32,-6.2999997,90.0,2.8882945,8.016737,86.70262,-11.722012,4.7884035,-3.7541082,0.36733363,4.29560443333,-1.66033173333,
22.26,41.52,-6.18,90.0,2.6506376,6.0046945,81.68952,-15.1696615,2.4516625,-3.6774938,0.0570140903333,4.2670973,-1.2966633,
20.1,42.42,-5.52,90.0,2.8319602,4.496205,76.63499,-16.203957,2.566584,-1.685518,0.0533488993333,3.6993999,0.751771466667,
18.06,43.68,-5.4,90.0,2.5295198,5.316267,72.17218,-12.947843,3.1028855,1.7238252,-0.02891429,2.53712693333,2.04476956667,
15.54,45.0,-5.1,90.0,1.27230183,8.343073,68.112623,-12.449849,2.7581203,-1.1109096,0.36774089,2.00404523333,1.80816116667,
12.599999,46.079998,-4.92,90.0,0.29409003,9.111756,63.90102,-10.879252,1.9919758,-4.865018,0.311948523333,3.04903203333,-0.500095013333,
9.48,47.16,-4.7999997,90.0,1.8310134,6.5628066,60.264034,-9.423578,-5.209783,2.1068976,-0.216246296667,2.9024244,-2.90079543333,
6.6,47.76,-4.68,90.0,1.8310134,6.5628066,60.264034,-7.5465236,-4.3287168,2.681506,0.0519235435,2.45262395,-2.2339342,
6.6,47.76,-4.68,90.0,3.3273056,4.078962,57.37648,-7.5465236,-4.3287168,2.681506,0.587245116667,2.3489805,-0.43737952,
3.72,48.12,-4.7999997,90.0,3.1041925,3.1415515,54.616306,-7.5465236,-4.3287168,2.681506,0.862948966667,2.18241783333,-0.59905516,
0.96,48.42,-4.8599997,90.0,2.8547828,2.1385186,52.736588,-8.197746,-1.3790601,-2.030283,0.862948966667,2.18241783333,-0.59905516,
-1.3199999,48.899998,-5.3399997,90.0,3.0013936,0.029700838,50.618076,-5.094861,-0.6512229,-1.7621324,1.02666083333,1.78209746667,-1.61472046667,
-3.6599998,49.379997,-5.58,90.0,3.6887898,357.23853,48.85607,-3.1028855,0.2681506,-1.9153614,1.0580186,1.53571523333,-2.29155916667,
-5.22,49.86,-5.8199997,90.0,5.0093136,353.9382,47.6233,-2.1068976,1.2641385,-1.4939818,0.965981576667,1.1467977,-2.88613463333,
-6.3599997,50.399998,-5.94,90.0,5.0093136,353.9382,47.6233,-1.4556746,1.685518,-0.842759,0.77579885,0.682336475,-2.9205468,
-6.72,51.059998,-5.7,90.0,7.2725268,349.54576,47.1093375,-1.1492168,1.8004397,-0.038307227,0.730594846667,0.127059973667,-2.5399777,
-7.2,51.899998,-5.46,90.0,8.766586,345.93286,48.005222,-1.5705963,0.842759,1.4939818,0.86172725,-0.573398833333,-1.83992613333,
-6.7799997,52.8,-5.1,90.0,8.762327,344.04276,49.799553,-1.8770541,0.22984336,3.4093432,1.0869329,-1.46281866667,-0.893492266667,
-6.7799997,52.8,-5.1,90.0,7.6548934,343.02087,52.479492,-3.4859576,0.2681506,6.9719152,1.2942198,-2.2545,0.206065206667,
-6.7799997,52.8,-5.1,90.0,5.8137345,343.0196,55.13495,-3.4859576,0.2681506,6.9719152,1.19027095,-2.10229275,0.9841038875,
-3.6599998,53.879997,-3.3,90.0,4.8141828,343.4049,56.012863,-3.4859576,0.2681506,6.9719152,0.56362501,-0.7338528,0.918741333333,
-1.1999999,54.3,-2.82,90.0,4.8141828,343.4049,56.012863,-3.4859576,0.2681506,6.9719152,0.10262536,0.50579643,0.35308012,
-1.1999999,54.3,-2.82,90.0,4.7353754,343.40335,55.134876,-19.383457,-2.4899697,8.887277,0.007941248,1.0494665,-0.417831815,
-1.1999999,54.3,-2.82,90.0,5.2197337,342.15356,54.17517,-19.383457,-2.4899697,8.887277,0.3136793075,0.886060035,-1.189354625,
3.9599998,55.92,-2.58,90.0,5.2197337,342.15356,54.17517,-19.383457,-2.4899697,8.887277,0.3136793075,0.886060035,-1.189354625,
3.9599998,55.92,-2.58,90.0,6.2710404,339.82947,53.236122,-5.401319,4.175488,5.554548,0.426791186667,0.9737192,-2.2459479,
3.9599998,55.92,-2.58,90.0,7.647752,337.20773,52.78933,-5.401319,4.175488,5.554548,0.3726278,0.5818491375,-2.408641625,
3.9599998,55.92,-2.58,90.0,7.647752,337.20773,52.78933,-5.401319,4.175488,5.554548,0.3726278,0.5818491375,-2.408641625,
7.2599998,56.76,-1.62,90.0,8.741227,335.52777,52.938396,-5.401319,4.175488,5.554548,0.06383541825,0.0192422565,-1.9355265,
8.22,57.0,-0.9,90.0,8.741227,335.52777,52.938396,-5.401319,4.175488,5.554548,0.06383541825,0.0192422565,-1.9355265,
8.22,57.0,-0.9,90.0,9.616083,334.29654,52.837692,-18.770542,-0.19153613,4.55856,0.120951317,0.67073005,-0.80023347,
8.22,57.0,-0.9,90.0,9.159967,334.33298,51.76011,-18.770542,-0.19153613,4.55856,0.2751947975,0.879340535,0.4221078875,
8.16,57.78,-0.24,90.0,9.159967,334.33298,51.76011,-18.770542,-0.19153613,4.55856,0.2751947975,0.879340535,0.4221078875,
8.16,57.78,-0.24,90.0,8.587525,334.96655,51.096767,-4.9799395,4.060566,-4.596867,0.0655662023333,0.374664023333,0.7790568,
8.16,57.78,-0.24,90.0,7.5470257,335.32175,51.609634,-4.9799395,4.060566,-4.596867,0.5076290075,-0.6087272175,0.7877107125,
8.16,57.78,-0.24,90.0,6.647373,336.37454,52.714897,-4.7500963,6.090849,-0.19153613,-0.0821613765,-1.6074919,2.18414865,
4.56,56.46,3.9599998,90.0,6.647373,336.37454,52.714897,-4.7500963,6.090849,-0.19153613,-0.0821613765,-1.6074919,2.18414865,
4.56,56.46,3.9599998,90.0,4.178272,340.45242,55.044777,-13.024457,0.61291564,-4.213795,-0.388510306667,-2.52613136667,4.67678423333,
4.56,56.46,3.9599998,90.0,1.68808,345.07416,57.83211,-13.024457,0.61291564,-4.213795,-0.4709771075,-2.393980825,3.944662375,
4.3199997,54.539997,5.2799997,90.0,1.68808,345.07416,57.83211,-13.024457,0.61291564,-4.213795,-0.4709771075,-2.393980825,3.944662375,
4.3199997,54.539997,5.2799997,90.0,0.21511774,349.21915,60.54027,-11.836933,-0.6512229,-2.7581203,-0.88819807,-2.3206772,3.56867465,
4.3199997,54.539997,5.2799997,40.0,-0.3786537,353.23447,63.709522,-11.836933,-0.6512229,-2.7581203,-1.1701124,-2.659096425,3.061962075,
6.2999997,52.8,5.58,40.0,-0.3786537,353.23447,63.709522,-11.836933,-0.6512229,-2.7581203,-1.2498302,-2.8515189,2.180789,
6.2999997,52.8,5.58,40.0,-0.12861407,355.2898,66.271706,-10.994174,-2.336741,-0.5363012,-1.0537426,-2.6487118,1.15087013,
6.2999997,52.8,5.58,40.0,0.35156474,356.64548,69.31399,-10.994174,-2.336741,-0.5363012,-0.5650503475,-2.414139525,0.7968737,
9.54,50.28,4.7999997,40.0,0.35156474,356.64548,69.31399,-10.994174,-2.336741,-0.5363012,-0.5650503475,-2.414139525,0.7968737,
9.54,50.28,4.7999997,40.0,0.4191669,357.7043,72.15675,-8.963891,-3.3327289,0.9576807,-0.33190345,-2.29400266667,0.656069296667,
9.54,50.28,4.7999997,40.0,0.8376238,358.15332,74.79365,-8.963891,-3.3327289,0.9576807,-0.504167436667,-2.11929513333,0.0639372276667,
12.599999,48.0,3.6,40.0,0.8376238,358.15332,74.79365,-8.963891,-3.3327289,0.9576807,-0.5656612,-2.0769417,-0.3371976,
12.599999,48.0,3.6,40.0,1.4778875,357.85406,77.33679,-6.895301,-2.2984335,1.4939818,-0.304210905,-2.1068742,-0.37751472,
12.599999,48.0,3.6,40.0,1.6521677,357.73657,79.18394,-6.895301,-2.2984335,1.4939818,-0.1441642,-1.99508586667,-0.098145682,
15.599999,46.62,2.58,40.0,1.6521677,357.73657,79.18394,-6.895301,-2.2984335,1.4939818,-0.2171625925,-1.71011725,0.3454443,
15.599999,46.62,2.58,40.0,1.6521677,357.73657,79.18394,-7.3549876,-0.49799395,2.4516625,-0.2171625925,-1.71011725,0.3454443,
15.599999,46.62,2.58,40.0,2.0393102,359.06354,83.17179,-7.3549876,-0.49799395,2.4516625,-0.27763826,-1.564731325,0.84788096,
17.88,45.18,1.74,40.0,2.0393102,359.06354,83.17179,-7.3549876,-0.49799395,2.4516625,-0.238644686667,-1.60209593333,1.7658078,
17.88,45.18,1.74,40.0,2.111251,1.2180606,85.03223,-7.393295,-0.7278373,0.49799395,-0.238644686667,-1.60209593333,1.7658078,
17.88,45.18,1.74,40.0,2.2354002,4.8324227,86.76091,-7.393295,-0.7278373,0.49799395,-0.340557375,-1.525025075,3.0744848,
19.859999,43.98,0.78,40.0,2.2354002,4.8324227,86.76091,-7.393295,-0.7278373,0.49799395,-0.501316736667,-1.49295466667,2.8287134,
19.859999,43.98,0.78,40.0,2.2354002,4.8324227,86.76091,-10.955867,1.4939818,-4.5202527,-0.501316736667,-1.49295466667,2.8287134,
19.859999,43.98,0.78,40.0,3.2406657,9.332006,89.82741,-10.955867,1.4939818,-4.5202527,-0.627053175,-1.581530125,1.271516025,
22.02,42.96,-0.71999997,40.0,3.2406657,9.332006,89.82741,-10.955867,1.4939818,-4.5202527,-0.627053175,-1.581530125,1.271516025,
22.92,42.36,-1.56,40.0,4.040856,9.32358,91.92362,-11.109096,-2.336741,3.5242648,-0.661363433333,-1.75969916667,-0.227241873333,
22.92,42.36,-1.56,40.0,4.654869,9.078269,93.799446,-10.802638,-4.213795,7.240066,-0.46995898,-1.3491977,-0.00162896766667,
22.92,42.36,-1.56,40.0,5.1693425,10.334965,94.3137,-10.802638,-4.213795,7.240066,-0.33933564,-0.37934732375,1.2660181925,
24.779999,40.98,-3.72,40.0,5.1693425,10.334965,94.3137,-10.802638,-4.213795,7.240066,-0.3005457,-0.012217305,1.8826867,
24.779999,40.98,-3.72,40.0,5.540016,11.932365,94.20341,-13.101071,-0.15322891,-5.439626,-0.246789555,-0.08491027,1.4245377,
24.779999,40.98,-3.72,40.0,5.9520845,13.048723,94.317696,-13.101071,-0.15322891,-5.439626,-0.292808076667,-0.23579399,0.653625826667,
25.98,40.14,-6.06,40.0,5.9520845,13.048723,94.317696,-13.101071,-0.15322891,-5.439626,-0.292808076667,-0.23579399,0.653625826667,
25.98,40.14,-6.06,40.0,6.3114114,13.292046,94.82399,-13.139379,-0.49799395,0.30645782,-0.2638937875,-0.469144505,0.2107485075,
25.98,40.14,-6.06,90.0,6.578078,13.7859125,95.279175,-13.139379,-0.49799395,0.30645782,-0.147014903333,-0.364482926667,0.563624986667,
26.76,39.48,-7.3199997,90.0,6.578078,13.7859125,95.279175,-13.139379,-0.49799395,0.30645782,-0.147014903333,-0.364482926667,0.563624986667,
26.76,39.48,-7.3199997,90.0,6.8227043,14.728254,95.202896,-14.863204,-1.8770541,-0.6895301,-0.129503433333,0.1201368328,0.81693047,
26.76,39.48,-7.3199997,90.0,6.9117284,15.3514185,94.806335,-14.863204,-1.8770541,-0.6895301,0.02076941825,0.4801400825,0.59406645,
26.76,38.82,-8.46,90.0,6.9117284,15.3514185,94.806335,-14.863204,-1.8770541,-0.6895301,0.23945918,0.92484995,-0.000610865,
26.76,38.82,-8.46,90.0,6.6843514,15.481848,93.7838,-15.705963,-2.4516625,0.9959879,0.33108896,1.4538593,-0.87109387,
26.76,38.82,-8.46,90.0,6.151906,14.219286,91.87722,-15.705963,-2.4516625,0.9959879,0.474642295,2.060143025,-1.256855225,
26.22,39.18,-8.639999,90.0,6.151906,14.219286,91.87722,-15.705963,-2.4516625,0.9959879,0.474642295,2.060143025,-1.256855225,
26.22,39.18,-8.639999,90.0,5.4392385,12.756527,88.97092,-10.228029,3.9073372,1.685518,0.5723807,2.8356365,-1.0952814,
26.22,39.18,-8.639999,90.0,4.9450526,11.409917,84.72721,-10.228029,3.9073372,1.685518,0.4401284,3.790724275,-1.081231475,
24.18,39.96,-7.98,90.0,4.9450526,11.409917,84.72721,-10.228029,3.9073372,1.685518,0.4401284,3.790724275,-1.081231475,
24.18,39.96,-7.98,90.0,4.738181,10.44118,80.89352,-17.27656,3.4859576,-4.8267107,0.389324783333,4.31026523333,-0.91426162,
24.18,39.96,-7.98,90.0,4.206875,10.045068,76.00338,-17.27656,3.4859576,-4.8267107,0.5329799325,3.83776085,0.5812382825,
20.64,41.879997,-7.08,90.0,4.206875,10.045068,76.00338,-17.27656,3.4859576,-4.8267107,0.5329799325,3.83776085,0.5812382825,
20.64,41.879997,-7.08,90.0,2.950999,11.97412,72.02016,-14.365211,3.7924154,-1.6472107,0.502131236667,2.73626906667,2.2162191,
18.42,43.2,-6.66,90.0,1.7530255,13.708431,68.8992,-14.365211,3.7924154,-1.6472107,0.4642575875,2.50179865,1.1273518,
16.14,44.34,-5.94,90.0,1.7530255,13.708431,68.8992,-14.365211,3.7924154,-1.6472107,0.4642575875,2.50179865,1.1273518,
16.14,44.34,-5.94,90.0,1.1462227,13.823477,65.77624,-14.365211,3.7924154,-1.6472107,0.35735618,2.70368955,-0.0873537255,
13.44,45.48,-5.22,90.0,1.1462227,13.823477,65.77624,-14.365211,3.7924154,-1.6472107,0.35735618,2.70368955,-0.0873537255,
10.38,46.5,-4.92,90.0,1.3663198,12.94365,63.26627,-10.6877165,-2.9496565,-1.7621324,0.212275675,2.79134875,-2.16093585,
10.38,46.5,-4.92,90.0,2.5658853,9.881727,60.089954,-9.078813,-3.6774938,1.9153614,0.6676757,2.59678815,-2.51309955,
10.38,46.5,-4.92,90.0,2.7554677,7.4546347,57.24658,-6.6654577,-1.5705963,-1.9153614,1.119715975,2.33930845,-1.1129964475,
4.68,48.18,-4.02,90.0,1.8018268,5.8665795,54.735756,-6.244078,-1.1875241,-3.1411927,1.49621263333,1.99671486667,-0.851953436667,
4.68,48.18,-4.02,90.0,1.3764879,3.4034803,52.58422,-5.7843914,-1.6089035,-2.834735,1.4782939,1.77639615,-1.90406695,
4.68,48.18,-4.02,90.0,1.718286,0.86495906,51.080006,-4.55856,-0.7278373,-1.9919758,1.3988814,1.74911086667,-2.6951375,
-3.06,49.14,-2.34,90.0,2.737492,357.09982,49.25253,-2.566584,1.1492168,-1.1109096,1.32883553333,1.4571172,-3.17079783333,
-3.06,49.14,-2.34,90.0,4.3561344,352.9538,48.059486,-2.4133554,1.685518,-0.30645782,1.1618657,1.0036516,-3.60349405,
-6.8399997,49.8,-1.68,90.0,6.295164,348.9232,47.763245,-2.2218192,2.2984335,-0.4213795,1.05638956667,0.167377082667,-3.24532343333,
-7.9199996,49.92,-1.1999999,90.0,7.58583,345.46896,48.464264,-2.2218192,2.2984335,-0.4213795,1.14353973333,-0.596204476667,-2.31721553333,
-8.4,50.039997,-0.59999996,90.0,7.909258,343.46893,49.529285,-2.2218192,2.2984335,-0.4213795,1.18263515,-1.03969262,-1.57847575,
-8.4,50.039997,-0.59999996,90.0,7.909258,343.46893,49.529285,-2.2218192,0.9959879,3.064578,1.1899655,-1.4624114,-0.8002335,
-8.639999,50.399998,0.24,90.0,7.418924,341.80103,51.5249,-3.9456444,1.1875241,6.205771,1.1716395,-1.8619173,0.1014036275,
-7.74,51.0,0.78,90.0,5.7836084,341.72232,54.09574,-8.465898,2.566584,9.461885,1.0197377,-2.37585856667,1.69128223333,
-6.0,51.48,1.02,90.0,3.4547713,343.39447,56.729893,-15.705963,4.0222588,12.603078,0.456519966667,-1.79675833333,2.2145901,
-3.78,52.199997,1.14,90.0,2.4646277,345.04068,58.02312,-19.498379,-5.209783,12.373235,-0.39380445,-0.442673671,0.669915539833,
-1.26,53.219997,0.53999996,90.0,2.8614674,344.86185,57.81248,-12.871228,-4.405331,8.274361,0.37140606,1.00304071333,-1.87657803333,
0.65999997,54.0,0.9,90.0,3.7071671,342.2703,56.7144,-7.201759,-2.834735,9.078813,0.788830663333,1.1178834,-2.56441233333,
1.92,54.539997,1.5,10.0,4.599518,339.3553,55.592148,-10.0748005,2.4899697,6.3589997,0.46751555,0.855211353333,-1.83341026667,
2.7,54.96,2.1599998,10.0,5.399885,337.39493,55.007435,-14.211981,1.5705963,9.155427,0.210748505,0.0928515208,-1.39704885,
3.06,55.26,2.7,10.0,6.0895143,335.99942,55.078392,-19.804836,-1.685518,7.776367,0.16086118,0.31113405,-1.098743,
2.58,55.14,3.1799998,10.0,6.42652,335.32996,54.66772,-17.96609,1.4173675,0.8810662,-0.118100611,1.0364347,-0.270816923333,
1.1999999,55.02,4.02,10.0,6.779252,335.30692,53.245693,0.6512229,8.810662,-4.596867,-0.212173857333,0.932180353333,0.185295786667,
-0.42,54.48,5.22,10.0,6.550935,335.5025,52.53027,-0.49799395,8.42759,2.2601264,0.564846753333,-0.7705047,0.198327581333,
-2.28,53.399998,6.8399997,10.0,6.062385,335.44412,53.959335,-4.098873,-0.4213795,-0.6512229,-0.347785943333,-1.94499493333,1.35815705333,
-3.06,52.86,7.56,10.0,4.8890953,338.10367,56.256577,-4.098873,-0.4213795,-0.6512229,-0.54611355,-2.52348435,4.754975,
-3.06,52.86,7.56,10.0,2.8375573,342.2307,58.33245,-4.098873,-0.4213795,-0.6512229,-0.60394209,-2.60350766667,5.15000133333,
-2.46,52.739998,7.3799996,10.0,2.8375573,342.2307,58.33245,-14.097059,-2.4899697,-0.6895301,-0.60394209,-2.60350766667,5.15000133333,
-1.3199999,52.44,6.48,10.0,1.0080552,347.27042,61.130516,-12.832921,-4.6351743,-0.842759,-1.19892486667,-2.0435479,2.71224163333,
0.29999998,51.96,5.3399997,10.0,1.119979,350.59283,63.45232,-12.832921,-4.6351743,-0.842759,-1.703092325,-1.905288675,2.087632,
0.29999998,51.96,5.3399997,10.0,1.9169865,353.72946,65.78862,-12.832921,-4.6351743,-0.842759,-1.48358806667,-2.12540386667,1.9173024,
2.1599998,51.539997,4.08,10.0,1.9169865,353.72946,65.78862,-10.0748005,-1.4939818,-2.3750482,-1.48358806667,-2.12540386667,1.9173024,
4.44,50.82,2.82,10.0,2.2936702,355.52518,68.35151,-10.0748005,-1.4939818,-2.3750482,-0.0407243518333,-2.29766783333,0.179187136667,
6.48,50.1,1.86,10.0,2.2715013,355.57684,70.47689,-10.0748005,-1.4939818,-2.3750482,0.00366519176667,-2.45649273333,-0.379143686667,
6.48,50.1,1.86,10.0,2.2715013,355.57684,70.47689,-10.0748005,-1.4939818,-2.3750482,-0.116675265,-2.3017402,-0.814894235,
8.58,49.44,1.02,10.0,2.2715013,355.57684,70.47689,-10.113108,-1.9919758,0.842759,-0.18020525,-2.07938535,-0.93218038,
10.32,48.6,0.53999996,10.0,3.0009303,353.84952,75.966194,-9.5385,-0.80445176,2.1068976,0.0342084533333,-1.84847826667,-0.95009908,
11.5199995,47.34,0.29999998,10.0,3.0306783,352.99185,78.21295,-8.810662,0.6895301,0.80445176,0.4109087,-1.79920176667,0.4952081065,
12.48,46.379997,0.65999997,10.0,2.3022075,353.92856,80.37477,-7.929596,1.9919758,0.2681506,0.49724431,-1.83178126667,1.48725323333,
13.559999,45.42,1.1999999,10.0,1.6633445,355.19177,81.99706,-7.393295,1.8770541,1.6472107,0.267966223333,-1.74788906667,1.84562746667,
14.94,44.7,1.62,10.0,1.0760932,357.39023,84.06725,-6.895301,0.7278373,-3.6391866,-0.142942469,-1.47218526667,2.85070446667,
16.199999,43.98,1.56,10.0,0.95540357,0.7458004,85.7888,-7.5848308,0.15322891,-4.2521024,-0.49805881,-0.916297883333,2.3860396,
17.64,43.32,1.38,10.0,1.3614316,3.6349337,86.8828,-8.312668,0.49799395,-3.371036,-0.58398715,-0.96089105,1.44042025,
18.9,42.78,1.14,10.0,2.0025876,5.1996307,88.09103,-8.312668,0.49799395,-3.371036,-0.6817256,-1.33901663333,0.42719844,
18.9,42.78,1.14,10.0,2.6355402,5.501682,89.331825,-8.312668,0.49799395,-3.371036,-0.8915578375,-1.437060475,-0.00519235425,
18.9,42.78,1.14,10.0,2.6355402,5.501682,89.331825,-11.300632,-2.9879637,1.4173675,-0.8915578375,-1.437060475,-0.00519235425,
21.48,41.46,-0.12,10.0,3.7315545,5.507049,91.07264,-10.534488,-3.4859576,1.8770541,-0.831998476667,-1.4163929,0.75665839,
22.68,40.68,-0.96,10.0,4.7584653,6.3554144,92.72675,-11.836933,-2.3750482,0.5363012,-0.499687766667,-1.23394776667,0.856025816667,
23.699999,40.26,-1.86,10.0,5.416343,7.2884727,94.13789,-12.29662,-1.4556746,0.30645782,-0.29973122,-0.83118397,-0.0790052356667,
24.539999,39.719997,-2.6399999,10.0,5.7858787,7.2411227,95.1632,-12.29662,-1.4556746,0.30645782,-0.366519155,-0.53023105,0.65484755,
24.539999,39.719997,-2.6399999,10.0,6.1635118,7.7819834,95.59161,-12.29662,-1.4556746,0.30645782,-0.312355753333,-0.246382316667,1.174083,
25.08,39.239998,-3.0,10.0,6.1635118,7.7819834,95.59161,-13.40753,-0.4213795,-2.2601264,-0.312355753333,-0.246382316667,1.174083,
25.56,38.64,-3.6,10.0,6.588845,9.275598,95.676704,-13.484144,1.0342951,-1.1492168,0.0928515163333,-0.230092576667,1.13702386667,
26.34,38.1,-4.38,10.0,6.6867025,10.923295,95.76844,-12.909535,-2.566584,-0.34476504,-0.06841690775,0.05039638375,0.44165557,
26.699999,37.68,-4.8599997,10.0,6.6867025,10.923295,95.76844,-13.637373,-4.213795,0.19153613,-0.0757472915,0.47464228,0.209526785,
27.06,37.5,-5.22,10.0,6.864043,11.475382,95.213844,-15.131354,-3.3327289,0.22984336,0.091018925,1.06290553,0.131946892,
26.88,37.68,-5.3399997,10.0,6.7834096,11.578337,94.255356,-15.705963,-1.1875241,0.61291564,0.42434772,1.70349953333,-0.408465243333,
26.519999,37.8,-5.3399997,10.0,6.2451563,11.115347,92.27027,-9.078813,3.217807,1.3024458,0.695571903333,2.34327913333,-0.812043536667,
25.8,38.1,-5.04,10.0,5.1469852,9.21541575,87.670785,-9.691729,4.9799395,1.1492168,0.439822975,3.417790975,-1.553430325,
25.019999,38.879997,-4.62,10.0,5.1469852,9.21541575,87.670785,-9.691729,4.9799395,1.1492168,0.057421334,4.2204677,-1.71653135,
25.019999,38.879997,-4.62,10.0,5.0649465,5.71588735,79.14234,-9.691729,4.9799395,1.1492168,0.04245513375,4.1755694,-1.07237391,
25.019999,38.879997,-4.62,10.0,5.0649465,5.71588735,79.14234,-9.691729,4.9799395,1.1492168,0.04245513375,4.1755694,-1.07237391,
21.72,40.8,-3.36,10.0,4.7592015,5.9391356,72.809906,-9.691729,4.9799395,1.1492168,0.132252325,3.578754075,0.9474519865,
21.72,40.8,-3.36,10.0,4.7592015,5.9391356,72.809906,-9.691729,4.9799395,1.1492168,0.131946893,2.7171286,2.02685085,
19.32,42.18,-2.76,10.0,4.7592015,5.9391356,72.809906,-13.9438305,2.6048915,0.9576807,0.131946893,2.7171286,2.02685085,
16.74,43.379997,-2.46,10.0,3.784875,8.110895,69.5064,-13.445837,2.7964275,0.9959879,0.42434773,2.3066272,1.33616593333,
14.099999,44.399998,-2.1599998,10.0,2.7347834,9.399921,66.64012,-11.568783,-0.15322891,-4.3287168,0.40480004,2.8120163,0.0553851166667,
11.28,45.48,-2.04,10.0,2.4743749,8.626123,62.087275,-11.568783,-0.15322891,-4.3287168,0.283848713333,2.687807,-1.575625,
11.28,45.48,-2.04,10.0,3.3692007,5.4497905,58.153675,-11.568783,-0.15322891,-4.3287168,0.6206390725,2.364964875,-2.06869515,
11.28,45.48,-2.04,10.0,3.3692007,5.4497905,58.153675,-8.504205,-3.6774938,2.1452048,0.6206390725,2.364964875,-2.06869515,
5.4,46.92,-2.1,10.0,2.9417458,4.0165305,55.4461,-8.504205,-3.6774938,2.1452048,1.03032606667,2.28911563333,-0.479732833333,
5.4,46.92,-2.1,10.0,2.9417458,4.0165305,55.4461,-8.504205,-3.6774938,2.1452048,1.03032606667,2.28911563333,-0.479732833333,
2.52,47.7,-2.04,10.0,2.110264,2.2630155,52.998928,-5.746084,-1.532289,-3.715801,1.53530793333,2.04436233333,-1.05842583333,
0.0,48.36,-2.3999999,10.0,2.110264,2.2630155,52.998928,-4.711789,-0.7278373,-1.8387469,1.41781825,1.9865338,-2.4923302,
-1.9799999,48.719997,-2.7,10.0,2.85588765,357.64801,49.9680965,-3.2561142,0.38307226,-1.3024458,1.20666246667,1.83015226667,-2.9305243,
-3.8999999,49.379997,-2.7,10.0,4.7645884,352.46735,47.629246,-2.2218192,1.2258313,-1.1875241,1.13824553333,1.41069146667,-3.2803464,
-5.22,50.219997,-2.46,10.0,6.70173,348.60184,46.866676,-1.7238252,2.183512,-0.5363012,0.955800486667,0.802676953333,-3.38093553333,
-6.42,50.94,-1.92,10.0,8.2489,345.2377,47.016254,-2.2218192,1.685518,0.45968673,0.959058433333,0.06149377,-2.68739983333,
-7.14,51.42,-1.4399999,10.0,8.2489,345.2377,47.016254,-2.4899697,0.91937345,1.8770541,0.96089105,-0.70249505,-1.9327776,
-7.3199997,52.02,-0.53999996,10.0,9.0509335,341.912565,48.8925365,-2.6048915,0.34476504,3.8307228,1.01851603333,-1.5137241,-0.97168298,
-6.7799997,52.44,0.42,10.0,7.9326925,340.5905,52.29646,-6.8569937,2.873042,9.155427,1.04620853333,-2.27934186667,0.62511876,
-5.52,53.039997,1.68,10.0,5.779633,341.58582,55.10166,-13.177686,5.0182467,11.836933,0.895528466667,-2.31680826667,1.95558326667,
-3.6,53.699997,3.0,10.0,4.289468,342.91455,56.56556,-19.651608,2.3750482,12.5264635,0.189775467667,-0.895528413333,1.38788583333,
-1.5,54.42,4.14,10.0,4.3699217,343.10153,56.190083,-19.804836,-3.0262709,11.760319,-0.130725164,0.718784773333,-0.473216956667,
0.06,54.719997,5.1,10.0,4.96504,341.79565,55.291718,-8.465898,-2.834735,9.308656,0.45204029,1.11055303333,-1.9458094,
1.0799999,54.719997,5.94,10.0,5.958197,339.33856,54.17158,-5.707777,-0.30645782,8.734048,0.47036624,1.16736345,-2.11359365,
1.92,54.96,6.8999996,10.0,5.5218577,341.04102,46.65389,-7.8146744,2.183512,5.66947,0.40032035,0.807971103333,-1.87576353333,
2.1599998,54.84,7.5,10.0,6.964107,339.06073,46.634613,-13.522451,-2.336741,10.151415,0.207286936667,0.019954932,-1.97675996667,
2.1,54.6,7.98,10.0,7.7986135,337.4814,46.714825,-18.195932,-2.2218192,7.431602,0.505796433333,0.282219748667,-1.15046286667,
1.1999999,54.239998,8.4,10.0,7.4457426,337.07864,46.330265,-16.587029,5.209783,-0.19153613,0.293622558667,0.441451946667,0.452040303333,
-0.48,53.76,8.639999,10.0,7.273998,337.5801,45.65602,-6.933608,4.9799395,-4.060566,-0.355523573333,0.625526,0.130725158333,
-2.1599998,52.92,8.88,10.0,7.299212,337.5877,45.41104,-4.098873,5.363012,2.030283,0.162490155667,-0.543262821333,0.0419460813333,
-3.0,52.559998,9.24,10.0,7.0473843,338.11145,46.68192,-5.631162,-1.1492168,-3.1794999,-0.458148936667,-1.48847496667,1.37281785333,
-2.6399999,52.44,9.24,10.0,5.204224,341.13916,48.74635,-9.002198,-0.80445176,-8.350976,-0.545502665,-2.31151405,3.96451525,
-1.56,52.379997,8.7,10.0,3.053367,344.31937,50.739773,-9.002198,-0.80445176,-8.350976,-0.41050145,-2.41128876667,3.98284133333,
-1.56,52.379997,8.7,10.0,1.0323548,347.92853,53.340767,-9.002198,-0.80445176,-8.350976,-0.6869179725,-2.09435155,2.992628875,
-1.56,52.379997,8.7,10.0,1.0323548,347.92853,53.340767,-12.373235,-2.7581203,-1.685518,-0.6869179725,-2.09435155,2.992628875,
1.68,51.539997,6.7799997,10.0,0.21760395,351.16266,55.661476,-11.683704,-2.681506,-3.1028855,-1.1972959,-1.9763527,2.36201223333,
3.54,51.059998,5.52,10.0,0.16797252,353.70853,58.263687,-10.611102,-0.49799395,-1.0726024,-0.875980746667,-2.25612903333,1.08693292333,
5.52,50.399998,4.5,10.0,0.14349602,354.7694,60.944897,-7.8146744,1.5705963,-0.61291564,-0.0663806892333,-2.23454506667,0.748513556667,
7.44,49.739998,3.36,10.0,-0.19512607,355.42102,63.109924,-8.082825,2.1452048,-1.2258313,-0.0555887375,-2.5760188,0.93279123,
7.44,49.739998,3.36,10.0,-0.48828515,356.38257,66.29767,-8.848969,0.842759,-0.91937345,-0.254527186667,-2.60717283333,0.56973365,
7.44,49.739998,3.36,10.0,-0.48828515,356.38257,66.29767,-8.848969,0.842759,-0.91937345,-0.45081854,-2.4495697,0.09407325,
10.5,47.399998,1.8,10.0,-0.07375475,356.70398,69.26614,-9.883265,-0.8810662,0.9959879,-0.489913925,-2.23698855,-0.1985312,
11.639999,46.079998,1.26,10.0,0.4026863,356.76578,71.8969,-9.040505,-2.873042,0.80445176,-0.250454746667,-2.09078806667,0.166969831333,
11.639999,46.079998,1.26,10.0,0.38489792,357.25287,74.419945,-8.734048,-1.7621324,1.7238252,0.048461977,-2.08875193333,0.548556996667,
11.639999,46.079998,1.26,10.0,0.093076415,357.81287,76.28564,-8.734048,-1.7621324,1.7238252,0.236201226667,-2.00445246667,0.883311133333,
14.099999,44.399998,1.3199999,10.0,0.093076415,357.81287,76.28564,-8.734048,-1.7621324,1.7238252,0.28221975,-1.944995,1.50395025,
15.48,43.559998,1.4399999,10.0,-0.579338,359.3573,78.66891,-7.3166804,-0.15322891,2.2218192,0.2003638,-1.8777997,2.4275784,
15.48,43.559998,1.4399999,10.0,-1.3031954,2.4858959,80.88396,-8.121132,1.1875241,-3.064578,-0.0183259586667,-1.55892813333,2.99731213333,
15.48,43.559998,1.4399999,10.0,-1.3031954,2.4858959,80.88396,-8.121132,1.1875241,-3.064578,-0.300138453333,-1.13743106667,2.56441233333,
18.6,41.82,1.0799999,10.0,-1.3031954,2.4858959,80.88396,-10.6877165,0.91937345,-1.8004397,-0.47158796,-0.9114109,1.8277088,
18.6,41.82,1.0799999,10.0,-1.0925487,7.5233026,83.66013,-11.683704,0.34476504,1.1492168,-0.662992406667,-0.9024516,0.48502699,
18.6,41.82,1.0799999,10.0,-0.43674296,7.5651064,84.56646,-11.683704,0.34476504,1.1492168,-0.8197811625,-1.0671816,-0.3533855475,
21.66,40.44,-0.17999999,10.0,-0.43674296,7.5651064,84.56646,-11.683704,0.34476504,1.1492168,-0.9114109,-1.0458013,-0.25900686,
21.66,40.44,-0.17999999,10.0,-0.31264472,6.4175797,84.61937,-9.346964,-4.2521024,-0.19153613,-0.893695815,-0.91813047,0.490524785,
21.66,40.44,-0.17999999,10.0,-0.31264472,6.4175797,84.61937,-9.346964,-4.2521024,-0.19153613,-0.8185594,-0.86009824,0.97127575,
23.82,39.18,-1.3199999,10.0,0.6568438,7.2571163,85.715645,-10.228029,-3.1794999,-2.3750482,-0.6401868,-0.8014552,1.2486086,
23.82,39.18,-1.3199999,10.0,1.1408232,8.626607,86.67354,-11.109096,-0.076614454,-2.1452048,-0.140091763333,-0.804713146667,0.79779002,
23.82,39.18,-1.3199999,10.0,0.92228353,9.1946535,87.72666,-11.109096,-0.076614454,-2.1452048,0.258396,-0.89491759,0.45478916,
25.68,38.219997,-2.7,90.0,0.92228353,9.1946535,87.72666,-11.109096,-0.076614454,-2.1452048,0.258396,-0.89491759,0.45478916,
25.68,38.219997,-2.7,90.0,2.047734,8.767342,89.3022,-13.982138,1.3024458,-2.681506,-0.071674858,-0.417017336667,1.25797516667,
25.68,38.219997,-2.7,90.0,2.2313197,10.506766,89.6087,-13.982138,1.3024458,-2.681506,-0.3118467075,-0.1954768825,1.7385225,
27.359999,37.2,-3.3,90.0,2.2313197,10.506766,89.6087,-13.982138,1.3024458,-2.681506,-0.3118467075,-0.1954768825,1.7385225,
27.359999,37.2,-3.3,90.0,2.6155376,12.409535,89.86031,-13.905523,-1.1492168,-1.1109096,-0.3604105,-0.26837346,0.813265246667,
27.359999,37.2,-3.3,90.0,3.062346,13.144402,90.0914,-13.905523,-1.1492168,-1.1109096,-0.3714060625,-0.029321532,0.23732114875,
28.26,36.719997,-3.9599998,90.0,3.062346,13.144402,90.0914,-13.905523,-1.1492168,-1.1109096,-0.3042109,0.23090707,0.05131268,
28.26,36.719997,-3.9599998,90.0,3.4629388,13.271679,89.94856,-16.16565,-4.4819455,0.34476504,-0.15393804,0.55833083,0.032986723,
28.26,36.719997,-3.9599998,90.0,3.5238004,13.277991,89.38958,-16.16565,-4.4819455,0.34476504,0.252287354,0.9062186,-0.102625359,
29.099998,36.3,-4.3199997,90.0,3.5238004,13.277991,89.38958,-16.16565,-4.4819455,0.34476504,0.252287354,0.9062186,-0.102625359,
29.099998,36.3,-4.3199997,90.0,2.9493139,12.908887,88.079926,-12.909535,1.0342951,1.0726024,0.71104715,1.66155346667,-0.804713146667,
29.099998,36.3,-4.3199997,90.0,2.1948156,11.7099085,85.83325,-12.909535,1.0342951,1.0726024,0.507934455,2.62244445,-1.145372325,
28.859999,36.42,-3.6599998,90.0,2.1948156,11.7099085,85.83325,-12.909535,1.0342951,1.0726024,0.507934455,2.62244445,-1.145372325,
28.859999,36.42,-3.6599998,90.0,1.877447,10.243877,82.21587,-11.070788,4.175488,0.22984336,0.19995655,3.81668613333,-1.3422746,
28.859999,36.42,-3.6599998,90.0,2.002625,8.535428,77.47003,-11.070788,4.175488,0.22984336,0.0297287766667,4.22107876667,-1.533679,
26.699999,38.04,-2.76,40.0,2.002625,8.535428,77.47003,-11.070788,4.175488,0.22984336,-0.09040806,4.1636577,-1.5393804,
26.699999,38.04,-2.76,40.0,2.3900611,7.217064,73.73901,-15.591042,2.1452048,-3.9073372,-0.0519235475,4.039652,-0.48075095,
26.699999,38.04,-2.76,40.0,2.4597106,7.0235248,68.99802,-15.591042,2.1452048,-3.9073372,0.07422012975,3.500563375,1.17011239,
23.46,40.44,-1.38,40.0,1.5077921,8.73338,65.21125,-15.591042,2.1452048,-3.9073372,0.368555366667,2.50902726667,1.76010636667,
23.46,40.44,-1.38,40.0,1.5077921,8.73338,65.21125,-11.492168,2.7964275,-0.6512229,0.368555366667,2.50902726667,1.76010636667,
23.46,40.44,-1.38,40.0,0.2578482,9.77864,62.52228,-11.492168,2.7964275,-0.6512229,0.5797111125,2.56196885,-0.03023783,
18.72,43.079998,-0.59999996,40.0,0.28479722,8.667277,58.98753,-11.492168,2.7964275,-0.6512229,0.22663102,3.2394184,-1.37139245,
18.72,43.079998,-0.59999996,40.0,0.28479722,8.667277,58.98753,-10.611102,1.7238252,0.19153613,-0.035430185,2.9272664,-1.0250319,
18.72,43.079998,-0.59999996,40.0,0.83417636,7.773679,56.286102,-10.611102,1.7238252,0.19153613,0.0623082553333,2.56644853333,-0.93421659,
13.32,45.48,-0.53999996,40.0,1.3191813,6.6806493,53.373154,-10.611102,1.7238252,0.19153613,0.40317106,2.2895229,-0.9737192,
13.32,45.48,-0.53999996,40.0,1.3191813,6.6806493,53.373154,-9.078813,-3.7541082,-0.30645782,0.7684685,2.2333233,-0.71837753,
13.32,45.48,-0.53999996,40.0,1.1431187,5.375794,50.733063,-9.078813,-3.7541082,-0.30645782,1.150564675,2.160325,-0.7583891975,
7.8599997,47.1,-0.84,40.0,0.765583,3.4071898,48.174236,-9.078813,-3.7541082,-0.30645782,1.3848315,2.2058344,-1.46607655,
7.8599997,47.1,-0.84,40.0,0.765583,3.4071898,48.174236,-5.746084,-0.7661445,-1.5705963,1.3170254,2.3738225,-2.2003367,
7.8599997,47.1,-0.84,90.0,1.3797662,0.41738173,45.415443,-5.746084,-0.7661445,-1.5705963,1.29442345,2.293188075,-2.4788912,
2.46,48.36,-1.9799999,90.0,1.3797662,0.41738173,45.415443,-5.746084,-0.7661445,-1.5705963,1.29442345,2.293188075,-2.4788912,
2.46,48.36,-1.9799999,90.0,2.2074883,357.96063,43.49676,-2.7964275,1.0726024,-2.0685902,1.2119566,1.76621506667,-2.8596638,
2.46,48.36,-1.9799999,90.0,2.2074883,357.96063,43.49676,-2.7964275,1.0726024,-2.0685902,1.2119566,1.76621506667,-2.8596638,
-1.74,49.8,-1.86,90.0,4.85573405,352.74143,41.0366875,-2.7964275,1.0726024,-2.0685902,1.067792452,1.12643551,-3.26373084,
-3.36,50.46,-1.5,90.0,7.7794995,347.70532,40.512684,-2.7964275,1.0726024,-2.0685902,1.048855675,0.235793984,-2.8044823,
-4.68,50.879997,-0.71999997,90.0,8.78307,345.00867,41.51846,-2.7964275,1.0726024,-2.0685902,1.13315505,-0.6102543725,-1.95446335,
-5.22,51.3,-0.06,90.0,8.866485,343.44043,42.9668,-2.7964275,1.0726024,-2.0685902,1.243721625,-1.561371575,-0.902858845,
-5.1,51.719997,1.0799999,90.0,7.8330874,342.24457,45.717293,-2.7964275,1.0726024,-2.0685902,1.307862475,-2.390010225,0.479834655,
-4.02,51.96,2.7,90.0,5.6784163,342.4158,48.82775,-9.730036,3.5625722,12.258312,1.033584,-2.40558736667,1.76988023333,
-1.92,52.5,3.9599998,90.0,3.818494,343.48813,50.90345,-19.804836,-2.4899697,13.445837,0.2186897725,-1.200350175,1.4501941,
0.12,53.1,4.68,40.0,3.56456,343.93732,50.934643,-18.272547,-4.2521024,9.193734,-0.074932801,0.439822985667,-0.102218103333,
1.92,53.46,5.7599998,40.0,4.1900187,342.6979,50.115036,-18.272547,-4.2521024,9.193734,0.559552566667,1.06453446667,-1.98164686667,
2.9399998,53.64,6.72,40.0,5.3801765,340.0877,49.014183,-18.272547,-4.2521024,9.193734,0.6279694625,1.0955868,-2.337781325,
3.84,53.699997,7.3799996,40.0,6.7433834,337.62476,48.256413,-18.272547,-4.2521024,9.193734,0.391259185,0.6020076725,-2.200336575,
4.3199997,53.82,8.16,40.0,8.0336685,335.722,48.357353,-18.272547,-4.2521024,9.193734,0.21135937,0.0051923545,-1.543351025,
4.2599998,53.76,8.639999,40.0,8.320016,334.7774,48.083675,-18.272547,-4.2521024,9.193734,0.4279111125,0.6151413025,0.04398228,
3.4199998,53.579998,8.88,40.0,7.440781,335.23975,47.34243,-18.272547,-4.2521024,9.193734,0.189368224667,0.776613356667,1.19403793333,
1.86,53.219997,9.3,40.0,6.4812555,336.13733,46.454323,-18.272547,-4.2521024,9.193734,0.164933616,0.338663692,0.887220668,
0.12,52.559998,10.0199995,40.0,5.916066,336.306,46.778294,-18.272547,-4.2521024,9.193734,0.01303179,-1.06046203333,-0.000407243666667,
-0.48,52.079998,10.139999,40.0,5.8220887,337.1785,48.548626,-18.272547,-4.2521024,9.193734,-0.6377433225,-1.841453275,1.456608195,
-0.06,52.199997,10.0199995,40.0,3.9762218,340.74887,51.094936,-18.272547,-4.2521024,9.193734,-0.71746124,-2.5711318,4.0436225,
1.14,52.199997,9.36,40.0,2.110314,344.1986,53.335323,-18.272547,-4.2521024,9.193734,-0.80756385,-2.5589145,3.73024865,
2.46,51.96,7.9199996,40.0,0.87479424,347.94775,56.13492,-18.272547,-4.2521024,9.193734,-1.275181225,-2.0518964,2.20003115,
4.02,51.78,6.24,40.0,1.098822,350.6711,58.4391,-18.272547,-4.2521024,9.193734,-1.31946893333,-1.87983593333,1.4269812,
5.8799996,51.36,4.8599997,40.0,1.4295185,352.19223,60.73734,-18.272547,-4.2521024,9.193734,-0.46303586425,-1.9758436,0.6059783375,
8.04,50.7,3.54,40.0,1.2098604,352.31937,63.348423,-18.272547,-4.2521024,9.193734,0.2577851325,-2.2962424,0.02290744425,
10.08,49.98,2.7,40.0,1.0191387,352.1727,65.613434,-18.272547,-4.2521024,9.193734,0.1175915625,-2.63282925,-0.0763581555,
11.88,49.079998,1.68,40.0,1.1277759,351.9819,68.865166,-18.272547,-4.2521024,9.193734,-0.2669481075,-2.6190848,-0.3112358475,
13.679999,47.7,0.96,40.0,1.6861067,351.85895,71.873695,-18.272547,-4.2521024,9.193734,-0.51068333,-2.17162595,0.04948008575,
15.0,46.379997,0.84,40.0,2.090582,352.23465,74.30222,-18.272547,-4.2521024,9.193734,-0.160861179333,-1.87250556667,0.425976693333,
15.0,46.379997,0.84,40.0,1.7223635,353.23358,76.57115,-7.8529816,-0.5363012,2.2218192,0.2428189325,-1.95171445,1.32802104,
15.0,46.379997,0.84,40.0,1.7223635,353.23358,76.57115,-7.8529816,-0.5363012,2.2218192,0.2428189325,-1.95171445,1.32802104,
17.88,43.68,1.92,40.0,0.9974819,354.8945,78.36647,-7.8529816,-0.5363012,2.2218192,0.38331794,-1.998751075,2.568993825,
17.88,43.68,1.92,40.0,-0.131967352,179.88374835,81.450642,-6.588843,0.9576807,-3.9456444,-0.0867428668333,-1.3905329,2.77129191667,
17.88,43.68,1.92,40.0,0.21437666,3.1857953,83.25175,-8.42759,0.38307226,-3.5242648,-0.636827025,-0.803593235,1.125519215,
17.88,43.68,1.92,40.0,1.1540922,3.1619737,84.56609,-10.419566,0.11492168,-1.7621324,-0.7840455275,-1.1365148,-0.21471914125,
17.88,43.68,1.92,40.0,1.8791354,2.805812,85.89459,-9.959879,-2.1068976,1.340753,-0.755436676667,-1.47544316667,-0.423126,
17.88,43.68,1.92,40.0,2.599067,3.0524964,87.6177,-9.653421,-3.1794999,2.2218192,-0.5754350625,-1.398881425,0.3029891575,
17.88,43.68,1.92,40.0,2.899252,4.225312,88.86654,-11.530476,-2.030283,0.45968673,-0.2312125,-1.020144965,1.0183123625,
17.88,43.68,1.92,40.0,2.9344938,5.4327154,89.8507,-12.641385,0.15322891,-1.0726024,-0.04367686475,-0.843299465,0.9972374875,
17.88,43.68,1.92,90.0,3.250477,6.525239,90.57321,-12.756307,0.22984336,-1.1875241,-0.29840767,-0.583681735,0.9010262375,
17.88,43.68,1.92,90.0,3.6273432,7.2706437,90.75866,-13.9438305,0.19153613,-0.61291564,-0.3704897775,-0.18264871,0.7965683025,
17.88,43.68,1.92,90.0,3.9222047,7.9992003,90.86667,-14.211981,-0.61291564,0.61291564,-0.19873483,-0.0961094633333,0.523307893333,
17.88,43.68,1.92,90.0,4.14805,8.266137,90.61483,-13.790602,-2.6048915,1.3024458,-0.172997036,0.3613878712,0.1361007786,
17.88,43.68,1.92,90.0,4.2486186,8.129205,89.57702,-15.552734,-5.133168,1.1109096,-0.0309505063333,1.06331278,-0.162897398,
17.88,43.68,1.92,90.0,3.9207628,7.6518674,87.56979,-16.127342,-3.3327289,0.49799395,0.3362813175,1.8206839,-0.4242459,
17.88,43.68,1.92,90.0,3.3747065,6.9748573,85.41576,-14.748282,-0.22984336,0.0,0.7229590325,2.58396,-0.7849618425,
17.88,43.68,1.92,90.0,2.546716,5.399202,81.85665,-9.193734,5.363012,0.5363012,0.79717913,3.4993415,-1.642311225,
17.88,43.68,1.92,90.0,2.4525197,2.6597795,76.66391,-11.377247,6.397307,-2.9879637,0.323758573333,4.67759866667,-2.28015636667,
17.88,43.68,1.92,90.0,2.6215096,1.4702199,71.443146,-16.242264,3.2561142,-4.367024,0.123700211,4.3014077,-0.6872234,
25.8,38.82,-3.48,90.0,2.6215096,1.4702199,71.443146,-16.242264,3.2561142,-4.367024,0.123700211,4.3014077,-0.6872234,
25.8,38.82,-3.48,90.0,1.8659183,2.811693,66.96758,-16.242264,3.2561142,-4.367024,0.1542434735,3.563787875,1.4972307,
25.8,38.82,-3.48,90.0,1.0950127,4.4804087,64.573425,-13.9438305,1.9153614,1.8770541,0.034819318,2.371684375,1.947132925,
25.8,38.82,-3.48,90.0,0.15695004,5.928196,61.81227,-13.522451,2.2218192,0.076614454,0.191811685,2.5488352,0.8915578125,
25.8,38.82,-3.48,90.0,0.18268396,5.7543836,58.054836,-12.334928,1.8004397,-1.9153614,-0.02596177325,3.31638745,-0.663705085,
25.8,38.82,-3.48,90.0,1.2374386,4.24464,54.311996,-11.453861,0.038307227,-3.1411927,0.031764994,2.88175685,-1.838704375,
25.8,38.82,-3.48,90.0,2.2555115,2.348726,51.374275,-9.002198,-3.6008794,0.38307226,0.4978551775,2.3335052,-1.4828754,
25.8,38.82,-3.48,90.0,2.3462942,1.1345335,49.42839,-7.240066,-2.2601264,-0.45968673,0.89267777,2.19463523333,-0.871093813333,
25.8,38.82,-3.48,90.0,2.2243664,359.5501,46.857456,-6.5122285,-1.4556746,-2.6431987,0.9663888025,2.1899518,-1.183856875,
25.8,38.82,-3.48,90.0,3.076478,357.02783,44.35072,-6.0525417,-1.3790601,-3.1794999,0.94897918,2.15910315,-2.306627175,
25.8,38.82,-3.48,160.0,4.3493104,354.16547,42.201218,-2.528277,0.61291564,-1.6089035,1.036638335,1.784642825,-2.36893545,
25.8,38.82,-3.48,160.0,5.927037,351.2559,40.61751,-1.9919758,1.3024458,-2.0685902,0.8509352925,1.3530665,-2.756223975,
25.8,38.82,-3.48,160.0,7.4879255,348.9943,39.97277,-1.0342951,2.030283,-1.6472107,0.744033886667,0.726522416667,-2.89753753333,
25.8,38.82,-3.48,160.0,9.544315,346.11752,39.99162,-0.9576807,1.8770541,-0.5363012,0.7141014775,0.076969024,-2.703384125,
25.8,38.82,-3.48,160.0,11.106516,343.52548,40.97165,-1.2641385,0.8810662,1.3790601,0.820086575,-0.749531645,-2.05006375,
25.8,38.82,-3.48,160.0,11.635651,341.47504,43.063,-1.7621324,0.30645782,3.7541082,1.04793935,-1.777617875,-0.97371917,
25.8,38.82,-3.48,160.0,10.666483,340.3568,46.157948,-2.9113493,0.5746084,7.0102224,1.278235525,-2.590984975,0.50121492675,
25.8,38.82,-3.48,160.0,9.177652,340.3509,48.436687,-15.552734,3.5625722,17.161638,0.9373727175,-1.8472565,1.5598444,
25.8,38.82,-3.48,160.0,7.283082,341.41223,49.64953,-19.804836,3.6008794,15.1696615,0.131946898,-0.015475258,1.35245565333,
25.8,38.82,-3.48,160.0,7.2429757,341.5293,48.8752,-18.732235,-0.9576807,10.189722,0.05436700825,0.76785759,-0.82436267,
